"Time (s)","Acceleration x (m/s^2)","Acceleration y (m/s^2)","Acceleration z (m/s^2)"
2.004369700E-2,5.386953950E-1,-8.619125932E-2,9.868899345E0
3.203710500E-2,5.219359994E-1,-2.394201700E-3,9.892841339E0
4.403051300E-2,5.051765442E-1,2.873042040E-2,9.811438560E0
5.599340400E-2,4.836287498E-1,3.351882473E-2,9.694122314E0
6.795629500E-2,4.453215301E-1,1.915361360E-2,9.710882187E0
7.796606000E-2,4.548983276E-1,2.873042040E-2,9.801861763E0
8.797582600E-2,4.955997467E-1,9.576806426E-2,1.004607010E1
9.996923400E-2,5.817909837E-1,6.943184882E-2,1.019211674E1
1.119321250E-1,4.477157295E-1,-1.915361360E-2,1.020648193E1
1.219418900E-1,4.429273009E-1,-1.005564705E-1,1.015859795E1
1.319516560E-1,4.620809257E-1,-1.101332754E-1,1.001973438E1
1.439450640E-1,5.315127969E-1,-5.746084079E-2,9.849745750E0
1.559384720E-1,5.722141862E-1,-2.633621916E-2,9.646238327E0
1.678403280E-1,4.788403511E-1,-1.197100803E-2,9.476250648E0
1.798337360E-1,5.027823448E-1,2.154781483E-2,9.481039047E0
1.917966270E-1,5.075707436E-1,3.830722719E-2,9.533711433E0
2.036984820E-1,5.363011956E-1,4.309562966E-2,9.667786598E0
2.156918900E-1,5.674257874E-1,1.675941236E-2,9.844957352E0
2.276852990E-1,5.003881454E-1,-7.182605099E-3,9.950302124E0
2.396787070E-1,4.764461517E-1,-4.548983276E-2,1.007240677E1
2.515805620E-1,3.974374831E-1,-2.154781483E-2,1.020887566E1
2.635434530E-1,4.046200812E-1,-2.154781483E-2,1.012986755E1
2.755368610E-1,5.123591423E-1,-7.182605099E-3,1.008437729E1
2.875302690E-1,5.171475410E-1,4.788403399E-3,9.971850395E0
2.994931600E-1,5.506663918E-1,2.154781483E-2,9.895236015E0
3.114865680E-1,5.506663918E-1,-2.394201700E-3,9.758766174E0
3.234799760E-1,4.620809257E-1,-1.915361360E-2,9.581595421E0
3.354428670E-1,4.501099288E-1,-4.788403399E-3,9.643844604E0
3.454526330E-1,4.620809257E-1,-2.394201607E-2,9.631873131E0
3.554623980E-1,4.932055473E-1,-4.788403399E-3,9.742006302E0
3.674558060E-1,4.812345505E-1,-3.351882473E-2,9.765948296E0
3.794186970E-1,4.932055473E-1,-3.351882473E-2,9.876082420E0
3.914121050E-1,5.075707436E-1,5.027823523E-2,1.000058079E1
4.033749960E-1,5.985504389E-1,-1.915361360E-2,9.981427193E0
4.153378860E-1,5.434837937E-1,-4.070143029E-2,1.008437729E1
4.273312950E-1,5.674257874E-1,-2.154781483E-2,1.005085850E1
4.393247030E-1,4.908113480E-1,-3.112462163E-2,9.888052940E0
4.512570760E-1,5.626373887E-1,5.506663769E-2,9.844957352E0
4.612668420E-1,5.626373887E-1,2.873042040E-2,9.706093788E0
4.712766070E-1,5.051765442E-1,-7.182605099E-3,9.576807022E0
4.832700150E-1,4.668693244E-1,-1.915361360E-2,9.540893555E0
4.952329060E-1,4.836287498E-1,7.182605099E-3,9.641449928E0
5.071957970E-1,5.363011956E-1,-1.915361360E-2,9.658209801E0
5.190976520E-1,5.171475410E-1,-1.197100803E-2,9.751583099E0
5.310300250E-1,5.410895944E-1,7.182605099E-3,9.897629738E0
5.429929160E-1,5.554547906E-1,7.182604820E-2,9.947908401E0
5.549558060E-1,5.243301988E-1,3.591302410E-2,9.940725327E0
5.649655720E-1,5.578489900E-1,3.830722719E-2,1.006043530E1
5.749753380E-1,5.554547906E-1,-4.788403399E-3,1.005804157E1
5.849851030E-1,4.812345505E-1,-6.224924326E-2,9.935936928E0
5.969479940E-1,4.740519226E-1,-1.675941236E-2,9.888052940E0
6.088803670E-1,5.363011956E-1,7.182605099E-3,9.792284966E0
6.208127400E-1,5.410895944E-1,4.788403399E-3,9.756371498E0
6.308225060E-1,5.099649429E-1,3.830722719E-2,9.763554573E0
6.408322710E-1,5.171475410E-1,2.873042040E-2,9.718064308E0
6.527951620E-1,5.219359994E-1,-1.675941236E-2,9.703699112E0
6.628049270E-1,5.339069963E-1,2.633621916E-2,9.708487511E0
6.747373010E-1,5.410895944E-1,3.351882473E-2,9.742006302E0
6.847470660E-1,5.243301988E-1,4.070143029E-2,9.758766174E0
6.967404740E-1,5.458779931E-1,2.873042040E-2,9.876082420E0
7.067502400E-1,5.554547906E-1,3.112462163E-2,9.967061996E0
7.187131310E-1,5.578489900E-1,-1.436521020E-2,1.002212811E1
7.307065390E-1,5.315127969E-1,-1.101332754E-1,9.988609314E0
7.407163040E-1,5.554547906E-1,-9.576806426E-2,1.001733971E1
7.526486770E-1,5.746083856E-1,-5.027823523E-2,9.964667320E0
7.626584430E-1,5.578489900E-1,-1.436521020E-2,9.931148529E0
7.746213340E-1,5.434837937E-1,2.394201700E-3,9.811438560E0
7.865842240E-1,4.884171486E-1,1.197100803E-2,9.694122314E0
7.965939900E-1,4.955997467E-1,2.633621916E-2,9.679757118E0
8.066037560E-1,4.932055473E-1,6.703764945E-2,9.742006302E0
8.185666460E-1,5.291185975E-1,4.309562966E-2,9.797073364E0
8.305600540E-1,5.482721925E-1,2.394201607E-2,9.849745750E0
8.405698200E-1,5.434837937E-1,9.576806799E-3,9.825803757E0
8.525021930E-1,5.027823448E-1,-1.675941236E-2,9.890447617E0
8.644040490E-1,5.291185975E-1,-2.873042040E-2,9.919178009E0
8.763364220E-1,5.458779931E-1,-4.309562966E-2,9.909601212E0
8.882687950E-1,5.626373887E-1,-2.394201607E-2,9.840168953E0
8.982785600E-1,5.602431893E-1,7.182605099E-3,9.909601212E0
9.102414510E-1,5.506663918E-1,2.154781483E-2,9.794678688E0
9.222348590E-1,4.860229492E-1,3.351882473E-2,9.689333916E0
9.341977500E-1,5.051765442E-1,6.464344263E-2,9.689333916E0
9.461911580E-1,5.075707436E-1,3.591302410E-2,9.758766174E0
9.581845660E-1,5.075707436E-1,-1.915361360E-2,9.923966408E0
9.701474570E-1,5.243301988E-1,-2.873042040E-2,9.950302124E0
9.821103470E-1,5.458779931E-1,-2.154781483E-2,9.945513725E0
9.940122030E-1,5.410895944E-1,-5.746084079E-2,1.001015759E1
1.005944576E0,5.722141862E-1,-1.197100803E-2,9.947908401E0
1.017937984E0,5.770025849E-1,-1.915361360E-2,9.885659218E0
1.029870357E0,5.027823448E-1,-3.830722719E-2,9.856928825E0
1.039880123E0,5.291185975E-1,-9.576806799E-3,9.842563629E0
1.051843013E0,4.955997467E-1,0.000000000E0,9.785101891E0
1.061852779E0,4.764461517E-1,9.576806799E-3,9.667786598E0
1.073846187E0,4.836287498E-1,3.830722719E-2,9.660603523E0
1.085809078E0,4.932055473E-1,6.224924326E-2,9.689333916E0
1.097771969E0,5.961562395E-1,4.070143029E-2,9.914389610E0
1.109673824E0,5.913678408E-1,1.436521020E-2,9.923966408E0
1.119683590E0,5.506663918E-1,4.788403399E-3,9.904812813E0
1.129693355E0,4.596867263E-1,-1.915361360E-2,9.854534149E0
1.141656246E0,4.812345505E-1,-2.873042040E-2,9.923966408E0
1.153619136E0,5.506663918E-1,-9.576806799E-3,9.976638794E0
1.165582027E0,5.626373887E-1,3.591302410E-2,9.931148529E0
1.177575435E0,4.788403511E-1,-9.576806799E-3,9.828198433E0
1.189568844E0,5.075707436E-1,1.436521020E-2,9.821015358E0
1.201562252E0,5.123591423E-1,7.182605099E-3,9.837775230E0
1.213525142E0,5.195417404E-1,-2.394201607E-2,9.792284966E0
1.223534908E0,5.099649429E-1,-7.182605099E-3,9.742006302E0
1.235528316E0,5.315127969E-1,7.182605099E-3,9.804255486E0
1.247491207E0,5.530605912E-1,3.112462163E-2,9.832986832E0
1.259484615E0,5.578489900E-1,1.436521020E-2,9.832986832E0
1.271478023E0,5.578489900E-1,2.633621916E-2,9.935936928E0
1.283410396E0,5.410895944E-1,-1.436521020E-2,9.900024414E0
1.295373287E0,5.410895944E-1,9.576806799E-3,9.866505623E0
1.307336177E0,5.410895944E-1,-1.197100803E-2,9.849745750E0
1.319299068E0,5.291185975E-1,4.788403399E-3,9.813833237E0
1.331292476E0,5.386953950E-1,0.000000000E0,9.768342972E0
1.343255367E0,4.932055473E-1,-7.182605099E-3,9.792284966E0
1.355248775E0,5.339069963E-1,-4.788403399E-3,9.792284966E0
1.365258541E0,5.578489900E-1,1.436521020E-2,9.804255486E0
1.377221431E0,5.243301988E-1,-7.182605099E-3,9.868899345E0
1.387231197E0,5.434837937E-1,-1.197100803E-2,9.935936928E0
1.397240963E0,5.075707436E-1,-3.591302410E-2,9.880870819E0
1.409203853E0,4.979939461E-1,-3.591302410E-2,9.895236015E0
1.419213619E0,4.860229492E-1,-4.788403399E-3,9.888052940E0
1.431176510E0,5.075707436E-1,3.591302410E-2,9.828198433E0
1.441186275E0,4.836287498E-1,1.915361360E-2,9.789890289E0
1.453179683E0,4.620809257E-1,-2.394201700E-3,9.797073364E0
1.465081539E0,4.812345505E-1,-2.154781483E-2,9.792284966E0
1.477044429E0,4.572925270E-1,-4.788403399E-3,9.775525093E0
1.487054195E0,4.788403511E-1,2.633621916E-2,9.871294022E0
1.497063961E0,5.219359994E-1,9.576806799E-3,9.962273598E0
1.508996334E0,5.099649429E-1,-3.351882473E-2,9.931148529E0
1.519006099E0,5.147533417E-1,-3.112462163E-2,9.952696800E0
1.530999508E0,5.027823448E-1,2.394201700E-3,9.938331604E0
1.542962398E0,5.195417404E-1,3.112462163E-2,9.890447617E0
1.552972164E0,4.620809257E-1,1.675941236E-2,9.809044838E0
1.564904537E0,4.477157295E-1,1.915361360E-2,9.804255486E0
1.576836910E0,5.075707436E-1,2.394201700E-3,9.777919769E0
1.588830318E0,5.386953950E-1,-1.197100803E-2,9.758766174E0
1.600793209E0,5.075707436E-1,4.788403399E-3,9.756371498E0
1.612725582E0,4.788403511E-1,-9.576806799E-3,9.768342972E0
1.622735347E0,5.195417404E-1,-2.154781483E-2,9.871294022E0
1.634698238E0,5.554547906E-1,-3.112462163E-2,9.890447617E0
1.644708004E0,5.458779931E-1,-4.309562966E-2,9.856928825E0
1.656670894E0,5.003881454E-1,-4.788403213E-2,9.832986832E0
1.668572750E0,5.219359994E-1,-3.830722719E-2,9.945513725E0
1.678582515E0,5.027823448E-1,-4.070143029E-2,9.926360130E0
1.688592281E0,4.692635238E-1,-2.154781483E-2,9.909601212E0
1.698602047E0,4.740519226E-1,1.436521020E-2,9.859322548E0
1.710564937E0,5.195417404E-1,5.506663769E-2,9.911994934E0
1.720574703E0,5.123591423E-1,2.394201700E-3,9.806650162E0
1.732537594E0,4.357447028E-1,-3.112462163E-2,9.765948296E0
1.742547359E0,4.572925270E-1,-5.267243832E-2,9.804255486E0
1.752557125E0,4.668693244E-1,-5.985504389E-2,9.789890289E0
1.764520015E0,4.788403511E-1,-1.915361360E-2,9.775525093E0
1.774529781E0,4.692635238E-1,-3.591302410E-2,9.761159897E0
1.786492672E0,4.812345505E-1,-3.830722719E-2,9.809044838E0
1.798486080E0,5.099649429E-1,2.394201700E-3,9.859322548E0
1.810479488E0,5.003881454E-1,4.788403399E-3,9.842563629E0
1.820489254E0,5.027823448E-1,1.436521020E-2,9.888052940E0
1.832452144E0,5.315127969E-1,-7.182605099E-3,9.880870819E0
1.842461910E0,4.740519226E-1,-2.154781483E-2,9.856928825E0
1.854424801E0,5.315127969E-1,-2.394201700E-3,9.832986832E0
1.866418209E0,4.620809257E-1,-2.873042040E-2,9.859322548E0
1.876427974E0,3.974374831E-1,-1.101332754E-1,9.813833237E0
1.888390865E0,4.525041282E-1,-1.244984865E-1,9.828198433E0
1.900353756E0,4.309563041E-1,-1.436520964E-1,9.864110947E0
1.912316646E0,4.189853072E-1,-1.388636976E-1,9.876082420E0
1.924310054E0,4.525041282E-1,-1.388636976E-1,9.852140427E0
1.936272945E0,3.998316824E-1,-1.077390760E-1,9.861717224E0
1.948266353E0,3.950432837E-1,-9.576806426E-2,9.892841339E0
1.960198726E0,4.453215301E-1,-8.619125932E-2,9.871294022E0
1.972100582E0,4.237737060E-1,-1.221042871E-1,9.914389610E0
1.984002437E0,4.022258818E-1,-1.221042871E-1,9.986215591E0
1.995995845E0,3.830722570E-1,-1.244984865E-1,9.866505623E0
2.007958736E0,3.926490843E-1,-1.149216816E-1,9.794678688E0
2.017968502E0,4.477157295E-1,-1.029506698E-1,9.847352028E0
2.029931392E0,4.596867263E-1,-1.173158810E-1,9.840168953E0
2.041924801E0,3.926490843E-1,-1.412578970E-1,9.708487511E0
2.051934566E0,3.758896589E-1,-1.723825186E-1,9.703699112E0
2.063866939E0,4.094084799E-1,-1.436520964E-1,9.739612579E0
2.075829830E0,4.405331016E-1,-1.053448766E-1,9.844957352E0
2.085839595E0,4.165911078E-1,-1.101332754E-1,9.878476143E0
2.097802486E0,4.333505034E-1,-1.268926859E-1,9.902418137E0
2.107812252E0,4.046200812E-1,-1.532289088E-1,9.919178009E0
2.119805660E0,4.094084799E-1,-1.412578970E-1,9.957485199E0
2.131768551E0,4.644751251E-1,-1.508347094E-1,9.964667320E0
2.143761959E0,4.237737060E-1,-1.436520964E-1,9.880870819E0
2.155724849E0,4.070142806E-1,-1.556231081E-1,9.773131371E0
2.167687740E0,3.806780577E-1,-1.388636976E-1,9.792284966E0
2.179650631E0,4.165911078E-1,-1.340752989E-1,9.782708168E0
2.189660396E0,3.974374831E-1,-1.532289088E-1,9.787496567E0
2.201623287E0,3.758896589E-1,-1.819593310E-1,9.775525093E0
2.213555660E0,3.663128614E-1,-1.675941199E-1,9.868899345E0
2.225549068E0,3.734954596E-1,-1.819593310E-1,9.914389610E0
2.237511959E0,3.303998411E-1,-2.059013397E-1,1.002931118E1
2.247521724E0,2.968810201E-1,-2.035071403E-1,1.001973438E1
2.259484615E0,3.184288144E-1,-2.442085743E-1,9.986215591E0
2.271447506E0,2.920926213E-1,-2.489969730E-1,9.914389610E0
2.281457271E0,3.256114423E-1,-2.681505978E-1,9.832986832E0
2.291467037E0,3.399766386E-1,-2.753331959E-1,9.739612579E0
2.303399410E0,3.591302633E-1,-2.418143749E-1,9.780313492E0
2.315362301E0,3.734954596E-1,-2.418143749E-1,9.756371498E0
2.327355709E0,3.830722570E-1,-2.274491638E-1,9.756371498E0
2.337365474E0,3.663128614E-1,-2.106897533E-1,9.758766174E0
2.349328365E0,3.375824392E-1,-2.370259613E-1,9.852140427E0
2.359338131E0,3.591302633E-1,-2.896983922E-1,9.909601212E0
2.371301021E0,3.495534360E-1,-3.016694188E-1,9.885659218E0
2.383233394E0,3.615244627E-1,-2.777273953E-1,9.900024414E0
2.395226802E0,3.088520169E-1,-2.585737705E-1,9.892841339E0
2.407189693E0,3.399766386E-1,-2.106897533E-1,9.988609314E0
2.419122066E0,3.423708379E-1,-2.346317619E-1,9.943120003E0
2.431084957E0,3.136404157E-1,-3.040636182E-1,9.902418137E0
2.441094722E0,3.423708379E-1,-3.088520169E-1,9.878476143E0
2.453027095E0,3.950432837E-1,-2.825157940E-1,9.832986832E0
2.464959469E0,4.357447028E-1,-2.801215947E-1,9.777919769E0
2.474969234E0,4.501099288E-1,-2.537853718E-1,9.718064308E0
2.486932125E0,4.118026793E-1,-2.657563984E-1,9.684545517E0
2.496941890E0,4.189853072E-1,-2.513911724E-1,9.698910713E0
2.508935299E0,4.548983276E-1,-2.681505978E-1,9.785101891E0
2.518945064E0,4.118026793E-1,-3.016694188E-1,9.785101891E0
2.530877437E0,3.423708379E-1,-3.303998411E-1,9.847352028E0
2.542870845E0,3.758896589E-1,-3.256114423E-1,1.001733971E1
2.554864254E0,3.423708379E-1,-3.232172430E-1,1.005564690E1
2.566796627E0,3.351882398E-1,-3.878606856E-1,1.000058079E1
2.576806392E0,3.447650373E-1,-3.687070608E-1,1.005085850E1
2.588738765E0,4.022258818E-1,-3.711012602E-1,9.876082420E0
2.598748531E0,4.453215301E-1,-3.639186621E-1,9.813833237E0
2.610711422E0,3.567360640E-1,-3.543418646E-1,9.715670586E0
2.620721187E0,3.639186621E-1,-3.447650373E-1,9.727641106E0
2.632714595E0,3.998316824E-1,-3.711012602E-1,9.742006302E0
2.644708004E0,3.902548850E-1,-3.734954596E-1,9.751583099E0
2.656670894E0,3.830722570E-1,-3.878606856E-1,9.758766174E0
2.666680660E0,3.854664862E-1,-3.687070608E-1,9.811438560E0
2.678674068E0,3.854664862E-1,-3.447650373E-1,9.856928825E0
2.690636959E0,4.261679053E-1,-3.303998411E-1,9.933543205E0
2.700646724E0,4.237737060E-1,-3.351882398E-1,9.947908401E0
2.712609615E0,3.854664862E-1,-3.878606856E-1,9.902418137E0
2.722619381E0,3.687070608E-1,-4.740519226E-1,9.909601212E0
2.734582271E0,3.782838583E-1,-4.501099288E-1,9.890447617E0
2.746575679E0,3.926490843E-1,-4.046200812E-1,9.801861763E0
2.756585445E0,3.902548850E-1,-3.878606856E-1,9.756371498E0
2.768578853E0,3.591302633E-1,-3.615244627E-1,9.746794701E0
2.778588619E0,3.734954596E-1,-3.998316824E-1,9.737217903E0
2.790551510E0,3.663128614E-1,-4.189853072E-1,9.756371498E0
2.800561275E0,3.830722570E-1,-4.070142806E-1,9.842563629E0
2.812524166E0,3.782838583E-1,-4.525041282E-1,9.900024414E0
2.822533931E0,3.423708379E-1,-4.309563041E-1,9.933543205E0
2.834435787E0,3.639186621E-1,-4.429273009E-1,9.962273598E0
2.846368160E0,3.423708379E-1,-4.501099288E-1,9.902418137E0
2.858331051E0,3.280056417E-1,-4.501099288E-1,9.861717224E0
2.870324459E0,3.447650373E-1,-4.237737060E-1,9.868899345E0
2.882287349E0,3.303998411E-1,-4.668693244E-1,9.830592155E0
2.894250240E0,3.064578176E-1,-4.740519226E-1,9.785101891E0
2.906182613E0,3.136404157E-1,-4.525041282E-1,9.758766174E0
2.918114986E0,2.777273953E-1,-4.788403511E-1,9.787496567E0
2.930077877E0,2.825157940E-1,-5.027823448E-1,9.806650162E0
2.940087642E0,3.256114423E-1,-5.171475410E-1,9.854534149E0
2.952020015E0,3.112462163E-1,-5.147533417E-1,9.907206535E0
2.962029781E0,3.136404157E-1,-5.267243981E-1,9.991003990E0
2.973992672E0,3.615244627E-1,-4.932055473E-1,9.986215591E0
2.984002437E0,3.471592367E-1,-4.932055473E-1,9.923966408E0
2.995995845E0,2.992752194E-1,-5.051765442E-1,9.823410034E0
3.007989254E0,3.136404157E-1,-5.339069963E-1,9.782708168E0
3.017999019E0,3.232172430E-1,-5.339069963E-1,9.828198433E0
3.029961910E0,3.016694188E-1,-5.219359994E-1,9.799467087E0
3.039971676E0,2.968810201E-1,-5.027823448E-1,9.773131371E0
3.051934566E0,3.423708379E-1,-4.955997467E-1,9.794678688E0
3.061944332E0,3.639186621E-1,-4.860229492E-1,9.880870819E0
3.073937740E0,2.944868207E-1,-5.339069963E-1,9.859322548E0
3.085870113E0,2.777273953E-1,-5.865794420E-1,9.823410034E0
3.097863521E0,3.112462163E-1,-5.506663918E-1,9.849745750E0
3.109826412E0,2.873041928E-1,-5.123591423E-1,9.895236015E0
3.119836177E0,2.873041928E-1,-5.195417404E-1,9.902418137E0
3.131799068E0,3.399766386E-1,-5.315127969E-1,9.885659218E0
3.143761959E0,3.112462163E-1,-5.482721925E-1,9.787496567E0
3.153771724E0,2.777273953E-1,-5.410895944E-1,9.787496567E0
3.165704097E0,3.351882398E-1,-5.243301988E-1,9.813833237E0
3.177666988E0,3.280056417E-1,-5.506663918E-1,9.842563629E0
3.187676754E0,2.992752194E-1,-5.698199868E-1,9.844957352E0
3.199609127E0,2.896983922E-1,-5.650315881E-1,9.844957352E0
3.211572017E0,2.944868207E-1,-6.009446383E-1,9.828198433E0
3.221581783E0,2.968810201E-1,-5.722141862E-1,9.969455719E0
3.233575191E0,3.519476354E-1,-5.482721925E-1,9.919178009E0
3.245538082E0,2.992752194E-1,-5.578489900E-1,9.852140427E0
3.257531490E0,3.160346150E-1,-5.482721925E-1,9.782708168E0
3.269494381E0,3.399766386E-1,-5.554547906E-1,9.801861763E0
3.279504146E0,3.375824392E-1,-5.386953950E-1,9.861717224E0
3.291467037E0,3.160346150E-1,-5.698199868E-1,9.861717224E0
3.303399410E0,3.088520169E-1,-5.482721925E-1,9.768342972E0
3.313409176E0,3.447650373E-1,-5.003881454E-1,9.835380554E0
3.325372066E0,3.639186621E-1,-4.908113480E-1,9.835380554E0
3.335381832E0,3.711012602E-1,-5.267243981E-1,9.794678688E0
3.347375240E0,3.495534360E-1,-5.722141862E-1,9.821015358E0
3.359368648E0,3.687070608E-1,-6.464344859E-1,9.876082420E0
3.369378414E0,3.208230138E-1,-6.536170840E-1,9.888052940E0
3.381371822E0,3.327940404E-1,-6.320692301E-1,9.900024414E0
3.393365230E0,3.399766386E-1,-6.105214357E-1,9.866505623E0
3.405328121E0,2.873041928E-1,-6.153098345E-1,9.914389610E0
3.415337886E0,3.543418646E-1,-6.033388376E-1,9.888052940E0
3.427300777E0,3.591302633E-1,-5.650315881E-1,9.811438560E0
3.437310543E0,3.232172430E-1,-5.530605912E-1,9.746794701E0
3.449303951E0,3.160346150E-1,-5.770025849E-1,9.725247383E0
3.461266842E0,3.327940404E-1,-5.793967843E-1,9.773131371E0
3.473229732E0,3.639186621E-1,-6.224924326E-1,9.818621635E0
3.485131588E0,3.136404157E-1,-6.296750307E-1,9.849745750E0
3.497124996E0,3.327940404E-1,-6.464344859E-1,9.849745750E0
3.509118404E0,3.615244627E-1,-6.177040339E-1,9.900024414E0
3.521020260E0,3.399766386E-1,-5.722141862E-1,9.911994934E0
3.533013668E0,3.208230138E-1,-6.129156351E-1,9.861717224E0
3.545007076E0,2.753331959E-1,-6.392518282E-1,9.835380554E0
3.557000484E0,2.633621991E-1,-6.440402865E-1,9.864110947E0
3.568963375E0,3.256114423E-1,-6.607996821E-1,9.847352028E0
3.580926265E0,3.064578176E-1,-6.464344859E-1,9.763554573E0
3.590936031E0,3.088520169E-1,-6.200982332E-1,9.797073364E0
3.602898922E0,3.423708379E-1,-6.344634295E-1,9.876082420E0
3.612908687E0,3.375824392E-1,-6.200982332E-1,9.864110947E0
3.624871578E0,3.040636182E-1,-6.200982332E-1,9.883264542E0
3.634881344E0,3.136404157E-1,-6.081272364E-1,9.883264542E0
3.646874752E0,2.896983922E-1,-6.368576288E-1,9.880870819E0
3.656884517E0,2.825157940E-1,-6.584054828E-1,9.849745750E0
3.668847408E0,3.136404157E-1,-6.607996821E-1,9.854534149E0
3.678857174E0,2.753331959E-1,-6.512228847E-1,9.811438560E0
3.688866939E0,2.777273953E-1,-6.081272364E-1,9.782708168E0
3.700860347E0,2.801215947E-1,-6.560112834E-1,9.801861763E0
3.712823238E0,2.825157940E-1,-6.679822803E-1,9.842563629E0
3.722833004E0,3.064578176E-1,-6.823474765E-1,9.856928825E0
3.734795894E0,2.849099934E-1,-6.607996821E-1,9.868899345E0
3.744805660E0,2.729389966E-1,-6.512228847E-1,9.859322548E0
3.756799068E0,2.489969730E-1,-6.584054828E-1,9.871294022E0
3.768761959E0,2.633621991E-1,-6.607996821E-1,9.830592155E0
3.778771724E0,2.873041928E-1,-6.392518282E-1,9.794678688E0
3.790765133E0,2.585737705E-1,-6.440402865E-1,9.842563629E0
3.802758541E0,2.561795712E-1,-6.727706790E-1,9.868899345E0
3.812768306E0,2.801215947E-1,-6.727706790E-1,9.871294022E0
3.824761715E0,2.920926213E-1,-6.871358752E-1,9.878476143E0
3.836755123E0,2.825157940E-1,-7.038952708E-1,9.832986832E0
3.848718013E0,3.327940404E-1,-6.895300746E-1,9.828198433E0
3.858727779E0,2.753331959E-1,-6.871358752E-1,9.811438560E0
3.870690670E0,2.489969730E-1,-6.703764796E-1,9.785101891E0
3.882684078E0,2.657563984E-1,-6.703764796E-1,9.825803757E0
3.892693844E0,2.705447972E-1,-6.799532771E-1,9.849745750E0
3.904595699E0,2.992752194E-1,-6.631938815E-1,9.837775230E0
3.916528072E0,2.681505978E-1,-6.631938815E-1,9.847352028E0
3.926537838E0,2.633621991E-1,-6.823474765E-1,9.818621635E0
3.936547603E0,2.896983922E-1,-7.062895298E-1,9.806650162E0
3.948510494E0,3.160346150E-1,-6.871358752E-1,9.813833237E0
3.960503902E0,2.968810201E-1,-6.607996821E-1,9.868899345E0
3.972466793E0,2.873041928E-1,-6.607996821E-1,9.854534149E0
3.982476558E0,2.896983922E-1,-6.823474765E-1,9.873687744E0
3.992486324E0,2.825157940E-1,-6.847416759E-1,9.900024414E0
4.002496090E0,2.801215947E-1,-6.823474765E-1,9.861717224E0
4.012505855E0,2.466027737E-1,-7.086837292E-1,9.811438560E0
4.024468746E0,2.777273953E-1,-6.967126727E-1,9.840168953E0
4.034478511E0,2.873041928E-1,-7.110779285E-1,9.856928825E0
4.044488277E0,2.585737705E-1,-7.015010715E-1,9.871294022E0
4.056451168E0,2.801215947E-1,-7.110779285E-1,9.765948296E0
4.068444576E0,2.801215947E-1,-6.895300746E-1,9.828198433E0
4.080437984E0,2.896983922E-1,-6.607996821E-1,9.861717224E0
4.092400875E0,2.944868207E-1,-6.919242740E-1,9.787496567E0
4.102410640E0,2.801215947E-1,-6.847416759E-1,9.837775230E0
4.114404049E0,2.442085743E-1,-7.062895298E-1,9.885659218E0
4.124413814E0,2.537853718E-1,-7.230489254E-1,9.837775230E0
4.136407222E0,2.753331959E-1,-7.015010715E-1,9.864110947E0
4.148370113E0,2.442085743E-1,-7.278373241E-1,9.856928825E0
4.160271969E0,2.657563984E-1,-6.919242740E-1,9.832986832E0
4.172265377E0,2.873041928E-1,-6.799532771E-1,9.804255486E0
4.184228267E0,2.681505978E-1,-6.823474765E-1,9.811438560E0
4.196191158E0,3.519476354E-1,-6.655880809E-1,9.835380554E0
4.208154049E0,3.208230138E-1,-6.679822803E-1,9.828198433E0
4.220086422E0,2.944868207E-1,-7.326257229E-1,9.837775230E0
4.232079830E0,2.849099934E-1,-7.757213712E-1,9.871294022E0
4.244042720E0,2.537853718E-1,-7.781155705E-1,9.897629738E0
4.254052486E0,2.466027737E-1,-7.757213712E-1,9.900024414E0
4.266015377E0,2.657563984E-1,-7.374141216E-1,9.866505623E0
4.276025142E0,2.657563984E-1,-7.062895298E-1,9.849745750E0
4.288018551E0,2.681505978E-1,-6.871358752E-1,9.756371498E0
4.300011959E0,2.825157940E-1,-6.775590777E-1,9.780313492E0
4.311974849E0,2.849099934E-1,-6.703764796E-1,9.809044838E0
4.323937740E0,2.920926213E-1,-6.991068721E-1,9.813833237E0
4.333947506E0,2.992752194E-1,-7.445967197E-1,9.828198433E0
4.345879879E0,2.849099934E-1,-7.493851185E-1,9.849745750E0
4.357842769E0,2.920926213E-1,-7.254431248E-1,9.832986832E0
4.367852535E0,3.303998411E-1,-7.086837292E-1,9.849745750E0
4.379845943E0,3.471592367E-1,-7.158663273E-1,9.832986832E0
4.391808834E0,2.801215947E-1,-6.967126727E-1,9.818621635E0
4.403710689E0,2.753331959E-1,-6.871358752E-1,9.828198433E0
4.415673580E0,2.753331959E-1,-6.751648784E-1,9.840168953E0
4.427636470E0,2.944868207E-1,-7.254431248E-1,9.823410034E0
4.437646236E0,2.753331959E-1,-7.086837292E-1,9.813833237E0
4.449609127E0,3.016694188E-1,-7.182605267E-1,9.799467087E0
4.459618892E0,3.064578176E-1,-7.278373241E-1,9.792284966E0
4.471581783E0,3.232172430E-1,-7.278373241E-1,9.847352028E0
4.481591549E0,3.064578176E-1,-7.110779285E-1,9.902418137E0
4.491601314E0,2.968810201E-1,-7.062895298E-1,9.844957352E0
4.503594722E0,2.657563984E-1,-7.015010715E-1,9.844957352E0
4.515588131E0,2.825157940E-1,-6.919242740E-1,9.816226959E0
4.527551021E0,2.537853718E-1,-7.015010715E-1,9.847352028E0
4.539483394E0,2.681505978E-1,-6.727706790E-1,9.849745750E0
4.551415767E0,2.944868207E-1,-6.584054828E-1,9.828198433E0
4.563378658E0,2.777273953E-1,-6.560112834E-1,9.785101891E0
4.575311031E0,3.016694188E-1,-6.679822803E-1,9.775525093E0
4.587304439E0,3.112462163E-1,-7.110779285E-1,9.782708168E0
4.597314205E0,2.992752194E-1,-7.230489254E-1,9.844957352E0
4.609307613E0,3.136404157E-1,-7.278373241E-1,9.892841339E0
4.621301021E0,2.896983922E-1,-7.278373241E-1,9.880870819E0
4.633233394E0,2.944868207E-1,-6.919242740E-1,9.897629738E0
4.645196285E0,2.681505978E-1,-7.015010715E-1,9.866505623E0
4.657128658E0,2.513911724E-1,-6.727706790E-1,9.880870819E0
4.667138424E0,2.825157940E-1,-6.631938815E-1,9.866505623E0
4.679101314E0,2.825157940E-1,-6.320692301E-1,9.763554573E0
4.691064205E0,2.944868207E-1,-6.655880809E-1,9.761159897E0
4.703057613E0,2.777273953E-1,-6.847416759E-1,9.775525093E0
4.714959469E0,2.992752194E-1,-7.062895298E-1,9.818621635E0
4.726922359E0,3.160346150E-1,-7.134721279E-1,9.859322548E0
4.736932125E0,3.112462163E-1,-6.847416759E-1,9.890447617E0
4.748925533E0,3.064578176E-1,-6.943184733E-1,9.816226959E0
4.760888424E0,2.849099934E-1,-6.943184733E-1,9.923966408E0
4.772881832E0,3.447650373E-1,-6.607996821E-1,9.914389610E0
4.784875240E0,3.136404157E-1,-6.703764796E-1,9.816226959E0
4.796868648E0,3.184288144E-1,-6.248866320E-1,9.844957352E0
4.806878414E0,2.944868207E-1,-5.889736414E-1,9.849745750E0
4.818871822E0,3.088520169E-1,-6.153098345E-1,9.813833237E0
4.830865230E0,3.088520169E-1,-6.177040339E-1,9.828198433E0
4.842858638E0,2.753331959E-1,-6.536170840E-1,9.813833237E0
4.852868404E0,3.184288144E-1,-6.560112834E-1,9.866505623E0
4.864831295E0,3.088520169E-1,-6.368576288E-1,9.890447617E0
4.874841060E0,3.208230138E-1,-6.416460276E-1,9.856928825E0
4.886834469E0,2.801215947E-1,-6.153098345E-1,9.849745750E0
4.898766842E0,3.543418646E-1,-6.129156351E-1,9.854534149E0
4.910729732E0,3.878606856E-1,-5.889736414E-1,9.878476143E0
4.920739498E0,3.615244627E-1,-5.841852427E-1,9.821015358E0
4.932702388E0,3.639186621E-1,-5.674257874E-1,9.801861763E0
4.944634761E0,3.184288144E-1,-5.506663918E-1,9.751583099E0
4.956628170E0,3.519476354E-1,-5.482721925E-1,9.770736694E0
4.966637935E0,3.327940404E-1,-5.482721925E-1,9.828198433E0
4.976647701E0,3.280056417E-1,-5.722141862E-1,9.876082420E0
4.988610592E0,3.639186621E-1,-5.674257874E-1,9.902418137E0
4.998620357E0,3.615244627E-1,-5.626373887E-1,9.911994934E0
5.010583248E0,3.423708379E-1,-5.386953950E-1,9.916783333E0
5.022546138E0,3.687070608E-1,-5.363011956E-1,9.866505623E0
5.034539547E0,3.447650373E-1,-5.219359994E-1,9.830592155E0
5.046532955E0,3.567360640E-1,-5.123591423E-1,9.804255486E0
5.058465328E0,3.711012602E-1,-4.716577232E-1,9.739612579E0
5.070428219E0,3.471592367E-1,-4.501099288E-1,9.821015358E0
5.080437984E0,3.902548850E-1,-4.285621047E-1,9.888052940E0
5.090447750E0,4.213795066E-1,-4.309563041E-1,9.907206535E0
5.102410640E0,3.711012602E-1,-4.477157295E-1,9.849745750E0
5.112420406E0,3.830722570E-1,-4.668693244E-1,9.868899345E0
5.124383297E0,4.189853072E-1,-3.974374831E-1,9.883264542E0
5.134393062E0,3.615244627E-1,-3.639186621E-1,9.883264542E0
5.146355953E0,3.471592367E-1,-4.213795066E-1,9.861717224E0
5.158349361E0,3.208230138E-1,-4.333505034E-1,9.880870819E0
5.170312252E0,3.280056417E-1,-4.572925270E-1,9.902418137E0
5.182305660E0,3.543418646E-1,-4.429273009E-1,9.844957352E0
5.194268551E0,3.950432837E-1,-3.782838583E-1,9.818621635E0
5.206231441E0,3.974374831E-1,-3.567360640E-1,9.823410034E0
5.218194332E0,4.094084799E-1,-3.303998411E-1,9.842563629E0
5.230157222E0,4.309563041E-1,-3.136404157E-1,9.787496567E0
5.240166988E0,4.046200812E-1,-2.825157940E-1,9.816226959E0
5.252129879E0,4.022258818E-1,-2.418143749E-1,9.852140427E0
5.264092769E0,3.806780577E-1,-3.112462163E-1,9.809044838E0
5.276025142E0,3.854664862E-1,-2.920926213E-1,9.868899345E0
5.287988033E0,4.141969085E-1,-3.040636182E-1,9.873687744E0
5.297997799E0,4.213795066E-1,-2.944868207E-1,9.876082420E0
5.309930172E0,4.237737060E-1,-3.016694188E-1,9.885659218E0
5.321893062E0,4.381389022E-1,-3.303998411E-1,9.911994934E0
5.331902828E0,4.046200812E-1,-3.351882398E-1,9.866505623E0
5.343865719E0,4.141969085E-1,-2.920926213E-1,9.847352028E0
5.353875484E0,4.309563041E-1,-2.442085743E-1,9.797073364E0
5.365868892E0,4.285621047E-1,-2.370259613E-1,9.746794701E0
5.377801265E0,3.998316824E-1,-2.274491638E-1,9.777919769E0
5.389764156E0,4.118026793E-1,-2.298433632E-1,9.861717224E0
5.399773922E0,4.237737060E-1,-2.346317619E-1,9.895236015E0
5.409783687E0,4.333505034E-1,-2.250549644E-1,9.931148529E0
5.421716060E0,3.926490843E-1,-2.274491638E-1,9.880870819E0
5.431725826E0,3.591302633E-1,-2.106897533E-1,9.856928825E0
5.443719234E0,3.974374831E-1,-2.226607651E-1,9.856928825E0
5.455651607E0,4.165911078E-1,-2.298433632E-1,9.852140427E0
5.467614498E0,4.094084799E-1,-2.250549644E-1,9.866505623E0
5.477624263E0,4.094084799E-1,-2.082955539E-1,9.818621635E0
5.489587154E0,3.950432837E-1,-2.130839527E-1,9.813833237E0
5.501519527E0,4.118026793E-1,-2.226607651E-1,9.847352028E0
5.513512935E0,4.381389022E-1,-1.915361285E-1,9.849745750E0
5.525475826E0,4.213795066E-1,-1.771709323E-1,9.900024414E0
5.535485592E0,4.022258818E-1,-1.747767180E-1,9.911994934E0
5.547479000E0,3.854664862E-1,-1.891419291E-1,9.900024414E0
5.559472408E0,3.758896589E-1,-1.628057212E-1,9.873687744E0
5.569482174E0,3.543418646E-1,-1.699883193E-1,9.842563629E0
5.581414547E0,3.447650373E-1,-1.580173075E-1,9.775525093E0
5.591424312E0,3.878606856E-1,-1.675941199E-1,9.797073364E0
5.601434078E0,4.022258818E-1,-1.412578970E-1,9.821015358E0
5.613427486E0,3.950432837E-1,-1.508347094E-1,9.856928825E0
5.625420894E0,3.854664862E-1,-1.221042871E-1,9.878476143E0
5.637414302E0,3.950432837E-1,-1.244984865E-1,9.868899345E0
5.649377193E0,3.950432837E-1,-1.675941199E-1,9.885659218E0
5.661370601E0,4.094084799E-1,-1.747767180E-1,9.935936928E0
5.671380367E0,3.926490843E-1,-1.843535304E-1,9.921571732E0
5.683343258E0,3.591302633E-1,-1.532289088E-1,9.854534149E0
5.695306148E0,4.118026793E-1,-8.619125932E-2,9.854534149E0
5.707299556E0,3.734954596E-1,-8.619125932E-2,9.818621635E0
5.719262447E0,4.022258818E-1,-8.140286058E-2,9.782708168E0
5.729272213E0,3.998316824E-1,-9.097966552E-2,9.789890289E0
5.741265621E0,3.782838583E-1,-1.316810995E-1,9.823410034E0
5.753167476E0,3.495534360E-1,-1.484405100E-1,9.816226959E0
5.765130367E0,3.782838583E-1,-1.005564705E-1,9.844957352E0
5.777093258E0,3.806780577E-1,-7.900865376E-2,9.919178009E0
5.787103023E0,4.046200812E-1,-4.548983276E-2,9.943120003E0
5.799096431E0,3.998316824E-1,-5.985504389E-2,9.926360130E0
5.811089840E0,3.854664862E-1,-5.506663769E-2,9.904812813E0
5.823083248E0,3.687070608E-1,-9.337386489E-2,9.830592155E0
5.835046138E0,3.687070608E-1,-8.379705995E-2,9.809044838E0
5.845055904E0,3.687070608E-1,-7.661445439E-2,9.811438560E0
5.855065670E0,3.543418646E-1,-5.985504389E-2,9.797073364E0
5.867028560E0,3.806780577E-1,-1.915361360E-2,9.777919769E0
5.877038326E0,3.782838583E-1,-1.915361360E-2,9.804255486E0
5.889001217E0,3.687070608E-1,-3.112462163E-2,9.787496567E0
5.900933590E0,3.591302633E-1,-6.943184882E-2,9.801861763E0
5.912926998E0,3.998316824E-1,-5.746084079E-2,9.916783333E0
5.924859371E0,4.022258818E-1,-2.873042040E-2,9.983820915E0
5.936761226E0,3.830722570E-1,-3.351882473E-2,9.959878922E0
5.946770992E0,3.830722570E-1,-5.027823523E-2,9.955090523E0
5.958733883E0,3.447650373E-1,-5.506663769E-2,9.921571732E0
5.970727291E0,3.160346150E-1,-5.506663769E-2,9.821015358E0
5.982720699E0,3.615244627E-1,-1.675941236E-2,9.770736694E0
5.994653072E0,3.495534360E-1,1.436521020E-2,9.761159897E0
6.004662838E0,3.303998411E-1,2.394201607E-2,9.722852707E0
6.016656246E0,3.327940404E-1,1.915361360E-2,9.734824181E0
6.028649654E0,3.854664862E-1,4.788403399E-3,9.895236015E0
6.040612545E0,4.046200812E-1,-4.309562966E-2,9.979032516E0
6.050622310E0,4.046200812E-1,-5.267243832E-2,1.000297451E1
6.062585201E0,3.232172430E-1,-5.506663769E-2,9.945513725E0
6.072594967E0,3.327940404E-1,-4.788403399E-3,9.880870819E0
6.084557857E0,3.663128614E-1,3.591302410E-2,9.890447617E0
6.096520748E0,3.902548850E-1,6.464344263E-2,9.864110947E0
6.106530513E0,3.663128614E-1,6.703764945E-2,9.859322548E0
6.118523922E0,4.022258818E-1,7.182604820E-2,9.859322548E0
6.128533687E0,3.495534360E-1,5.267243832E-2,9.837775230E0
6.140466060E0,3.327940404E-1,3.591302410E-2,9.825803757E0
6.150475826E0,3.375824392E-1,2.873042040E-2,9.806650162E0
6.162438717E0,3.375824392E-1,3.112462163E-2,9.811438560E0
6.172448482E0,3.687070608E-1,3.112462163E-2,9.835380554E0
6.184441890E0,4.022258818E-1,1.915361360E-2,9.859322548E0
6.194451656E0,3.543418646E-1,-2.394201700E-3,9.849745750E0
6.206414547E0,3.878606856E-1,1.197100803E-2,9.866505623E0
6.218407955E0,4.070142806E-1,6.703764945E-2,9.955090523E0
6.230340328E0,3.974374831E-1,7.661445439E-2,9.871294022E0
6.242303219E0,3.519476354E-1,5.985504389E-2,9.835380554E0
6.254235592E0,3.639186621E-1,8.379705995E-2,9.854534149E0
6.266198482E0,3.758896589E-1,6.943184882E-2,9.861717224E0
6.276208248E0,3.734954596E-1,3.830722719E-2,9.895236015E0
6.288171138E0,3.303998411E-1,1.915361360E-2,9.828198433E0
6.300103511E0,3.543418646E-1,3.351882473E-2,9.799467087E0
6.310113277E0,3.806780577E-1,5.506663769E-2,9.801861763E0
6.322045650E0,4.022258818E-1,7.422025502E-2,9.840168953E0
6.332055416E0,3.974374831E-1,9.097966552E-2,9.852140427E0
6.342065181E0,4.213795066E-1,7.661445439E-2,9.885659218E0
6.352074947E0,4.237737060E-1,7.182604820E-2,9.919178009E0
6.364007320E0,4.165911078E-1,9.097966552E-2,9.907206535E0
6.375970211E0,3.902548850E-1,9.337386489E-2,9.835380554E0
6.387963619E0,3.399766386E-1,7.661445439E-2,9.840168953E0
6.399926510E0,3.256114423E-1,5.985504389E-2,9.840168953E0
6.409936275E0,3.495534360E-1,6.943184882E-2,9.825803757E0
6.421929683E0,3.758896589E-1,7.900865376E-2,9.813833237E0
6.433923092E0,3.854664862E-1,9.816227108E-2,9.842563629E0
6.445855465E0,3.758896589E-1,7.422025502E-2,9.832986832E0
6.455865230E0,3.591302633E-1,7.182604820E-2,9.844957352E0
6.467858638E0,3.902548850E-1,9.816227108E-2,9.885659218E0
6.479791011E0,3.806780577E-1,6.224924326E-2,9.914389610E0
6.489800777E0,3.711012602E-1,2.873042040E-2,9.916783333E0
6.501733150E0,3.399766386E-1,6.224924326E-2,9.911994934E0
6.511742916E0,3.974374831E-1,1.005564705E-1,9.900024414E0
6.523705806E0,3.806780577E-1,8.379705995E-2,9.835380554E0
6.535607662E0,3.280056417E-1,6.703764945E-2,9.835380554E0
6.547601070E0,3.495534360E-1,3.591302410E-2,9.837775230E0
6.559563961E0,3.687070608E-1,6.224924326E-2,9.806650162E0
6.569573726E0,3.926490843E-1,1.029506698E-1,9.777919769E0
6.581536617E0,3.663128614E-1,1.029506698E-1,9.847352028E0
6.593468990E0,3.830722570E-1,9.097966552E-2,9.873687744E0
6.605401363E0,3.878606856E-1,8.140286058E-2,9.847352028E0
6.617394771E0,3.663128614E-1,6.943184882E-2,9.856928825E0
6.629388179E0,3.854664862E-1,7.661445439E-2,9.897629738E0
6.639397945E0,3.495534360E-1,5.506663769E-2,9.873687744E0
6.649407711E0,3.687070608E-1,7.900865376E-2,9.876082420E0
6.661340084E0,3.926490843E-1,8.619125932E-2,9.871294022E0
6.671349849E0,3.711012602E-1,8.140286058E-2,9.861717224E0
6.683312740E0,3.830722570E-1,8.140286058E-2,9.876082420E0
6.693322506E0,3.830722570E-1,5.506663769E-2,9.830592155E0
6.705285396E0,3.830722570E-1,9.576806426E-2,9.792284966E0
6.715295162E0,3.734954596E-1,1.149216816E-1,9.823410034E0
6.727258052E0,3.950432837E-1,9.337386489E-2,9.868899345E0
6.737267818E0,3.663128614E-1,7.182604820E-2,9.876082420E0
6.749200191E0,3.711012602E-1,6.224924326E-2,9.856928825E0
6.761193599E0,3.830722570E-1,8.379705995E-2,9.868899345E0
6.771203365E0,3.806780577E-1,1.077390760E-1,9.866505623E0
6.783166256E0,3.878606856E-1,1.388636976E-1,9.840168953E0
6.793176021E0,4.022258818E-1,1.077390760E-1,9.825803757E0
6.805169429E0,3.495534360E-1,9.576806426E-2,9.828198433E0
6.817132320E0,4.118026793E-1,1.268926859E-1,9.943120003E0
6.827142086E0,4.141969085E-1,5.746084079E-2,9.902418137E0
6.839104976E0,3.615244627E-1,5.985504389E-2,9.847352028E0
6.849114742E0,3.902548850E-1,1.268926859E-1,9.794678688E0
6.861077633E0,3.782838583E-1,1.532289088E-1,9.895236015E0
6.871087398E0,3.902548850E-1,1.077390760E-1,9.897629738E0
6.883050289E0,3.854664862E-1,7.900865376E-2,9.861717224E0
6.893060054E0,3.878606856E-1,6.464344263E-2,9.852140427E0
6.905022945E0,3.734954596E-1,9.337386489E-2,9.789890289E0
6.916955318E0,3.902548850E-1,1.173158810E-1,9.792284966E0
6.928918209E0,4.118026793E-1,1.388636976E-1,9.868899345E0
6.940881099E0,4.046200812E-1,8.858546615E-2,9.849745750E0
6.952843990E0,3.902548850E-1,9.337386489E-2,9.890447617E0
6.964806881E0,3.615244627E-1,1.268926859E-1,9.904812813E0
6.976739254E0,3.687070608E-1,1.125274822E-1,9.900024414E0
6.988732662E0,3.567360640E-1,1.101332754E-1,9.856928825E0
6.998742427E0,3.615244627E-1,1.221042871E-1,9.892841339E0
7.010644283E0,4.237737060E-1,1.149216816E-1,9.880870819E0
7.022607174E0,4.285621047E-1,1.077390760E-1,9.861717224E0
7.032616939E0,3.830722570E-1,9.816227108E-2,9.797073364E0
7.044549312E0,4.141969085E-1,1.125274822E-1,9.746794701E0
7.054559078E0,4.141969085E-1,1.436520964E-1,9.794678688E0
7.066521969E0,3.830722570E-1,1.029506698E-1,9.840168953E0
7.078484859E0,3.687070608E-1,5.267243832E-2,9.818621635E0
7.090447750E0,3.567360640E-1,7.182604820E-2,9.861717224E0
7.102410640E0,3.782838583E-1,1.221042871E-1,9.890447617E0
7.114404049E0,3.734954596E-1,1.484405100E-1,9.876082420E0
7.126366939E0,3.806780577E-1,1.604115069E-1,9.919178009E0
7.136376705E0,3.926490843E-1,1.651999205E-1,9.904812813E0
7.148370113E0,3.782838583E-1,1.125274822E-1,9.832986832E0
7.158379879E0,3.854664862E-1,1.244984865E-1,9.821015358E0
7.170373287E0,3.734954596E-1,1.077390760E-1,9.818621635E0
7.182366695E0,3.782838583E-1,1.268926859E-1,9.801861763E0
7.194360103E0,3.782838583E-1,1.268926859E-1,9.816226959E0
7.206292476E0,3.519476354E-1,1.053448766E-1,9.861717224E0
7.218224849E0,3.734954596E-1,9.576806426E-2,9.904812813E0
7.230218258E0,3.663128614E-1,1.173158810E-1,9.883264542E0
7.242181148E0,3.782838583E-1,1.436520964E-1,9.852140427E0
7.252190914E0,3.854664862E-1,1.556231081E-1,9.842563629E0
7.264184322E0,3.878606856E-1,1.340752989E-1,9.876082420E0
7.276147213E0,4.094084799E-1,1.244984865E-1,9.900024414E0
7.288049068E0,3.926490843E-1,1.077390760E-1,9.916783333E0
7.300042476E0,3.711012602E-1,1.005564705E-1,9.849745750E0
7.310052242E0,3.878606856E-1,1.221042871E-1,9.837775230E0
7.322015133E0,3.591302633E-1,1.292868853E-1,9.787496567E0
7.332024898E0,3.663128614E-1,1.244984865E-1,9.782708168E0
7.343987789E0,3.423708379E-1,1.340752989E-1,9.816226959E0
7.353997554E0,3.471592367E-1,1.268926859E-1,9.804255486E0
7.365960445E0,3.734954596E-1,1.292868853E-1,9.832986832E0
7.375970211E0,3.591302633E-1,1.221042871E-1,9.914389610E0
7.387933101E0,3.663128614E-1,1.268926859E-1,9.911994934E0
7.399895992E0,3.782838583E-1,1.364694983E-1,9.914389610E0
7.411889400E0,3.806780577E-1,1.484405100E-1,9.873687744E0
7.423882808E0,3.734954596E-1,1.340752989E-1,9.876082420E0
7.435845699E0,3.878606856E-1,1.316810995E-1,9.868899345E0
7.445855465E0,3.806780577E-1,1.268926859E-1,9.821015358E0
7.457818355E0,3.232172430E-1,1.173158810E-1,9.806650162E0
7.469811763E0,3.375824392E-1,1.340752989E-1,9.799467087E0
7.481774654E0,3.232172430E-1,1.340752989E-1,9.797073364E0
7.491784420E0,3.280056417E-1,1.484405100E-1,9.859322548E0
7.503747310E0,3.423708379E-1,1.340752989E-1,9.923966408E0
7.513757076E0,3.663128614E-1,1.029506698E-1,9.940725327E0
7.523766842E0,3.591302633E-1,9.337386489E-2,9.945513725E0
7.535729732E0,3.615244627E-1,1.029506698E-1,9.950302124E0
7.547723140E0,3.591302633E-1,1.388636976E-1,9.871294022E0
7.557732906E0,3.663128614E-1,1.771709323E-1,9.773131371E0
7.569695797E0,3.615244627E-1,1.651999205E-1,9.763554573E0
7.581628170E0,3.423708379E-1,1.508347094E-1,9.722852707E0
7.591637935E0,3.423708379E-1,1.029506698E-1,9.761159897E0
7.603631344E0,3.351882398E-1,1.197100878E-1,9.873687744E0
7.615594234E0,3.495534360E-1,9.576806426E-2,9.864110947E0
7.625604000E0,3.782838583E-1,1.316810995E-1,9.878476143E0
7.637566890E0,3.471592367E-1,1.556231081E-1,9.907206535E0
7.647576656E0,3.351882398E-1,1.460463107E-1,9.897629738E0
7.659539547E0,3.447650373E-1,1.244984865E-1,9.883264542E0
7.669549312E0,3.375824392E-1,1.436520964E-1,9.876082420E0
7.679559078E0,3.519476354E-1,1.364694983E-1,9.871294022E0
7.689568844E0,3.734954596E-1,1.388636976E-1,9.844957352E0
7.701531734E0,3.303998411E-1,1.197100878E-1,9.801861763E0
7.711541500E0,3.280056417E-1,1.460463107E-1,9.818621635E0
7.721551265E0,3.423708379E-1,1.460463107E-1,9.835380554E0
7.733514156E0,3.351882398E-1,1.244984865E-1,9.832986832E0
7.745507564E0,3.232172430E-1,1.316810995E-1,9.866505623E0
7.757439937E0,3.184288144E-1,1.484405100E-1,9.866505623E0
7.767449703E0,3.088520169E-1,1.292868853E-1,9.873687744E0
7.777459469E0,3.351882398E-1,1.077390760E-1,9.897629738E0
7.787469234E0,3.447650373E-1,1.221042871E-1,9.876082420E0
7.799432125E0,3.567360640E-1,1.125274822E-1,9.859322548E0
7.811425533E0,3.615244627E-1,1.340752989E-1,9.861717224E0
7.823357906E0,3.615244627E-1,1.173158810E-1,9.830592155E0
7.835290279E0,3.184288144E-1,1.053448766E-1,9.809044838E0
7.845300045E0,3.016694188E-1,1.244984865E-1,9.830592155E0
7.857232418E0,3.112462163E-1,1.244984865E-1,9.849745750E0
7.867242183E0,3.232172430E-1,1.460463107E-1,9.892841339E0
7.877251949E0,3.375824392E-1,1.604115069E-1,9.923966408E0
7.889214840E0,3.040636182E-1,1.244984865E-1,9.866505623E0
7.901177730E0,3.303998411E-1,1.604115069E-1,9.883264542E0
7.911187496E0,3.519476354E-1,1.795651317E-1,9.864110947E0
7.923180904E0,3.734954596E-1,1.843535304E-1,9.818621635E0
7.935143795E0,3.591302633E-1,1.699883193E-1,9.885659218E0
7.945153560E0,3.782838583E-1,1.316810995E-1,9.842563629E0
7.957116451E0,3.495534360E-1,7.900865376E-2,9.847352028E0
7.967126217E0,3.399766386E-1,8.140286058E-2,9.866505623E0
7.979119625E0,3.543418646E-1,8.140286058E-2,9.926360130E0
7.991113033E0,3.256114423E-1,8.379705995E-2,9.876082420E0
8.001122799E0,3.232172430E-1,9.816227108E-2,9.900024414E0
8.013024654E0,3.375824392E-1,1.364694983E-1,9.864110947E0
8.024987545E0,3.208230138E-1,1.484405100E-1,9.828198433E0
8.034997310E0,3.256114423E-1,1.795651317E-1,9.789890289E0
8.045007076E0,3.303998411E-1,1.819593310E-1,9.787496567E0
8.057000484E0,3.375824392E-1,1.340752989E-1,9.830592155E0
8.068932857E0,3.303998411E-1,1.029506698E-1,9.844957352E0
8.080865230E0,3.423708379E-1,9.337386489E-2,9.880870819E0
8.090874996E0,3.112462163E-1,7.422025502E-2,9.911994934E0
8.102837886E0,3.184288144E-1,8.858546615E-2,9.892841339E0
8.112847652E0,3.280056417E-1,1.149216816E-1,9.854534149E0
8.124810543E0,3.639186621E-1,1.843535304E-1,9.873687744E0
8.136742916E0,3.567360640E-1,1.771709323E-1,9.852140427E0
8.148736324E0,3.184288144E-1,1.460463107E-1,9.832986832E0
8.160668697E0,3.040636182E-1,1.077390760E-1,9.856928825E0
8.170678463E0,3.136404157E-1,1.173158810E-1,9.830592155E0
8.182671871E0,3.351882398E-1,1.460463107E-1,9.849745750E0
8.194604244E0,3.375824392E-1,1.149216816E-1,9.864110947E0
8.206536617E0,3.519476354E-1,1.173158810E-1,9.847352028E0
8.216546383E0,3.471592367E-1,1.268926859E-1,9.873687744E0
8.226556148E0,3.711012602E-1,1.628057212E-1,9.900024414E0
8.238519039E0,3.830722570E-1,1.604115069E-1,9.864110947E0
8.250481929E0,3.256114423E-1,1.580173075E-1,9.832986832E0
8.262475338E0,3.136404157E-1,1.268926859E-1,9.847352028E0
8.274438228E0,3.447650373E-1,1.340752989E-1,9.864110947E0
8.286370601E0,3.232172430E-1,1.292868853E-1,9.866505623E0
8.298302974E0,3.160346150E-1,1.412578970E-1,9.823410034E0
8.310296383E0,3.423708379E-1,1.508347094E-1,9.799467087E0
8.322228756E0,3.495534360E-1,1.436520964E-1,9.821015358E0
8.334191646E0,3.711012602E-1,1.651999205E-1,9.871294022E0
8.344201412E0,3.375824392E-1,1.412578970E-1,9.880870819E0
8.356164302E0,3.112462163E-1,1.005564705E-1,9.904812813E0
8.368157711E0,3.064578176E-1,7.661445439E-2,9.909601212E0
8.380120601E0,3.016694188E-1,7.422025502E-2,9.890447617E0
8.392114010E0,2.968810201E-1,1.508347094E-1,9.871294022E0
8.404076900E0,3.375824392E-1,1.532289088E-1,9.821015358E0
8.414086666E0,3.303998411E-1,1.675941199E-1,9.804255486E0
8.425988521E0,3.232172430E-1,1.197100878E-1,9.777919769E0
8.437920894E0,3.351882398E-1,1.221042871E-1,9.852140427E0
8.449914302E0,3.639186621E-1,1.197100878E-1,9.878476143E0
8.461907711E0,3.591302633E-1,1.149216816E-1,9.868899345E0
8.471917476E0,3.519476354E-1,1.125274822E-1,9.876082420E0
8.483910885E0,3.663128614E-1,1.316810995E-1,9.888052940E0
8.495904293E0,3.663128614E-1,1.268926859E-1,9.866505623E0
8.507867183E0,3.327940404E-1,1.101332754E-1,9.835380554E0
8.519830074E0,3.375824392E-1,8.379705995E-2,9.801861763E0
8.531792965E0,3.351882398E-1,1.292868853E-1,9.801861763E0
8.541833248E0,3.758896589E-1,1.460463107E-1,9.821015358E0
8.553765621E0,3.854664862E-1,1.316810995E-1,9.842563629E0
8.563775386E0,3.447650373E-1,1.484405100E-1,9.856928825E0
8.575707760E0,3.495534360E-1,1.316810995E-1,9.828198433E0
8.585717525E0,3.447650373E-1,1.340752989E-1,9.950302124E0
8.595727291E0,3.615244627E-1,1.364694983E-1,9.909601212E0
8.607720699E0,3.471592367E-1,1.005564705E-1,9.876082420E0
8.619683590E0,3.160346150E-1,1.221042871E-1,9.825803757E0
8.631676998E0,3.112462163E-1,9.576806426E-2,9.770736694E0
8.643609371E0,3.208230138E-1,1.340752989E-1,9.835380554E0
8.653619136E0,3.184288144E-1,1.125274822E-1,9.780313492E0
8.665612545E0,3.447650373E-1,1.101332754E-1,9.873687744E0
8.677605953E0,3.351882398E-1,1.651999205E-1,1.003888798E1
8.687615719E0,3.615244627E-1,1.292868853E-1,9.904812813E0
8.699548092E0,3.280056417E-1,8.619125932E-2,9.801861763E0
8.709557857E0,3.208230138E-1,1.053448766E-1,9.828198433E0
8.719567623E0,3.112462163E-1,1.460463107E-1,9.847352028E0
8.729577388E0,3.256114423E-1,8.619125932E-2,9.737217903E0
8.741540279E0,3.112462163E-1,5.267243832E-2,9.854534149E0
8.751550045E0,3.232172430E-1,5.746084079E-2,9.952696800E0
8.763512935E0,3.663128614E-1,5.267243832E-2,9.945513725E0
8.775445308E0,3.615244627E-1,2.394201607E-2,9.866505623E0
8.785455074E0,3.711012602E-1,4.788403213E-2,9.897629738E0
8.797417965E0,3.495534360E-1,-2.394201700E-3,9.878476143E0
8.809411373E0,3.160346150E-1,-7.182605099E-3,9.844957352E0
8.821343746E0,3.280056417E-1,-2.394201700E-3,9.916783333E0
8.833306636E0,2.968810201E-1,4.788403399E-3,9.911994934E0
8.843316402E0,2.801215947E-1,-4.309562966E-2,9.864110947E0
8.855248775E0,2.801215947E-1,-1.915361360E-2,9.809044838E0
8.865258541E0,2.992752194E-1,-1.436521020E-2,9.799467087E0
8.877221431E0,2.968810201E-1,2.873042040E-2,9.758766174E0
8.887231197E0,3.160346150E-1,1.675941236E-2,9.744400978E0
8.899194088E0,2.561795712E-1,-3.112462163E-2,9.794678688E0
8.911187496E0,2.920926213E-1,-2.633621916E-2,9.873687744E0
8.923150386E0,3.256114423E-1,-5.027823523E-2,9.871294022E0
8.935113277E0,2.944868207E-1,-6.943184882E-2,9.923966408E0
8.947106685E0,3.088520169E-1,-5.746084079E-2,9.962273598E0
8.959069576E0,3.088520169E-1,-7.422025502E-2,9.861717224E0
8.971032467E0,2.968810201E-1,-3.591302410E-2,9.873687744E0
8.981042232E0,3.160346150E-1,-4.309562966E-2,9.888052940E0
8.992944088E0,2.873041928E-1,-4.788403213E-2,9.832986832E0
9.004906978E0,2.873041928E-1,-5.027823523E-2,9.837775230E0
9.016869869E0,2.896983922E-1,-2.633621916E-2,9.773131371E0
9.026879635E0,2.801215947E-1,-2.154781483E-2,9.775525093E0
9.038842525E0,2.896983922E-1,-4.788403213E-2,9.835380554E0
9.050835933E0,3.184288144E-1,-7.422025502E-2,9.868899345E0
9.062829342E0,2.968810201E-1,-1.101332754E-1,9.940725327E0
9.074792232E0,3.303998411E-1,-1.125274822E-1,9.926360130E0
9.086785640E0,3.327940404E-1,-8.140286058E-2,9.921571732E0
9.098779049E0,3.184288144E-1,-8.140286058E-2,9.859322548E0
9.108788814E0,2.944868207E-1,-9.337386489E-2,9.787496567E0
9.120751705E0,2.561795712E-1,-6.224924326E-2,9.792284966E0
9.130761470E0,2.873041928E-1,-1.053448766E-1,9.832986832E0
9.142663326E0,2.896983922E-1,-1.268926859E-1,9.866505623E0
9.154595699E0,2.777273953E-1,-1.340752989E-1,9.914389610E0
9.164605465E0,2.920926213E-1,-1.340752989E-1,9.923966408E0
9.176598873E0,2.705447972E-1,-1.556231081E-1,9.852140427E0
9.188592281E0,2.753331959E-1,-1.460463107E-1,9.821015358E0
9.200555172E0,2.705447972E-1,-1.532289088E-1,9.821015358E0
9.212518062E0,2.777273953E-1,-1.484405100E-1,9.825803757E0
9.222527828E0,2.705447972E-1,-1.436520964E-1,9.844957352E0
9.234490719E0,2.418143749E-1,-1.580173075E-1,9.852140427E0
9.244500484E0,2.873041928E-1,-1.987187415E-1,9.947908401E0
9.256463375E0,2.849099934E-1,-2.418143749E-1,9.969455719E0
9.266473140E0,2.657563984E-1,-2.202665508E-1,9.964667320E0
9.278436031E0,2.777273953E-1,-2.298433632E-1,9.885659218E0
9.288445797E0,2.609679997E-1,-2.130839527E-1,9.856928825E0
9.300378170E0,2.633621991E-1,-1.795651317E-1,9.773131371E0
9.312371578E0,2.920926213E-1,-1.699883193E-1,9.691728592E0
9.322381344E0,3.208230138E-1,-1.460463107E-1,9.753977776E0
9.334344234E0,2.274491638E-1,-2.561795712E-1,9.837775230E0
9.344354000E0,2.322375625E-1,-2.944868207E-1,9.873687744E0
9.356316890E0,2.944868207E-1,-2.992752194E-1,9.933543205E0
9.366326656E0,2.849099934E-1,-2.729389966E-1,9.991003990E0
9.376336422E0,2.992752194E-1,-2.896983922E-1,9.950302124E0
9.388329830E0,2.513911724E-1,-2.777273953E-1,9.945513725E0
9.400231685E0,2.633621991E-1,-2.513911724E-1,9.890447617E0
9.412194576E0,2.633621991E-1,-2.130839527E-1,9.811438560E0
9.422204342E0,2.609679997E-1,-2.394201756E-1,9.730035782E0
9.432214107E0,2.585737705E-1,-2.370259613E-1,9.722852707E0
9.442223873E0,2.801215947E-1,-2.346317619E-1,9.775525093E0
9.454217281E0,2.537853718E-1,-2.226607651E-1,9.818621635E0
9.466210689E0,2.729389966E-1,-2.489969730E-1,9.878476143E0
9.478173580E0,2.896983922E-1,-2.346317619E-1,9.943120003E0
9.490136470E0,2.920926213E-1,-2.873041928E-1,9.945513725E0
9.502129879E0,2.920926213E-1,-2.705447972E-1,9.940725327E0
9.514092769E0,3.064578176E-1,-2.753331959E-1,9.902418137E0
9.524102535E0,2.777273953E-1,-3.016694188E-1,9.873687744E0
9.536095943E0,2.561795712E-1,-2.992752194E-1,9.804255486E0
9.548089351E0,2.944868207E-1,-2.729389966E-1,9.821015358E0
9.558099117E0,2.944868207E-1,-2.394201756E-1,9.801861763E0
9.570062008E0,2.896983922E-1,-2.513911724E-1,9.763554573E0
9.582024898E0,2.513911724E-1,-2.825157940E-1,9.773131371E0
9.593987789E0,2.681505978E-1,-2.753331959E-1,9.859322548E0
9.603997554E0,3.088520169E-1,-2.753331959E-1,9.923966408E0
9.615960445E0,3.112462163E-1,-2.561795712E-1,9.945513725E0
9.625970211E0,2.825157940E-1,-2.920926213E-1,9.914389610E0
9.637933101E0,3.088520169E-1,-3.112462163E-1,9.876082420E0
9.647942867E0,2.849099934E-1,-2.968810201E-1,9.864110947E0
9.659936275E0,2.968810201E-1,-2.873041928E-1,9.832986832E0
9.671929683E0,2.442085743E-1,-2.825157940E-1,9.785101891E0
9.681939449E0,2.489969730E-1,-2.968810201E-1,9.799467087E0
9.693932857E0,2.681505978E-1,-2.873041928E-1,9.840168953E0
9.703942623E0,3.040636182E-1,-2.920926213E-1,9.856928825E0
9.715874996E0,3.351882398E-1,-3.208230138E-1,9.885659218E0
9.727868404E0,3.232172430E-1,-3.232172430E-1,9.914389610E0
9.739831295E0,2.992752194E-1,-3.327940404E-1,9.880870819E0
9.749841060E0,2.777273953E-1,-3.160346150E-1,9.902418137E0
9.759850826E0,2.825157940E-1,-3.112462163E-1,9.878476143E0
9.769860592E0,2.753331959E-1,-2.992752194E-1,9.854534149E0
9.781823482E0,2.777273953E-1,-2.992752194E-1,9.806650162E0
9.791833248E0,2.466027737E-1,-2.968810201E-1,9.821015358E0
9.801843013E0,2.873041928E-1,-2.777273953E-1,9.821015358E0
9.813744869E0,3.064578176E-1,-2.801215947E-1,9.818621635E0
9.823754635E0,2.992752194E-1,-2.920926213E-1,9.804255486E0
9.835748043E0,3.040636182E-1,-3.160346150E-1,9.811438560E0
9.847680416E0,2.920926213E-1,-3.351882398E-1,9.844957352E0
9.859643306E0,3.016694188E-1,-3.543418646E-1,9.919178009E0
9.869653072E0,2.944868207E-1,-3.830722570E-1,9.940725327E0
9.881615963E0,3.088520169E-1,-3.567360640E-1,9.916783333E0
9.893609371E0,3.040636182E-1,-3.064578176E-1,9.847352028E0
9.903619136E0,3.064578176E-1,-2.873041928E-1,9.816226959E0
9.915551510E0,3.184288144E-1,-2.849099934E-1,9.813833237E0
9.925561275E0,2.968810201E-1,-2.944868207E-1,9.825803757E0
9.937493648E0,2.681505978E-1,-3.208230138E-1,9.816226959E0
9.949395504E0,2.609679997E-1,-3.447650373E-1,9.797073364E0
9.961358394E0,3.064578176E-1,-3.280056417E-1,9.871294022E0
9.973351802E0,3.303998411E-1,-3.471592367E-1,9.854534149E0
9.983361568E0,3.232172430E-1,-3.208230138E-1,9.883264542E0
9.995293941E0,3.327940404E-1,-3.327940404E-1,9.911994934E0
1.000530371E1,3.040636182E-1,-3.495534360E-1,9.933543205E0
1.001723608E1,2.896983922E-1,-3.495534360E-1,9.890447617E0
1.002724585E1,2.801215947E-1,-3.567360640E-1,9.859322548E0
1.003920874E1,2.489969730E-1,-3.399766386E-1,9.811438560E0
1.004921850E1,2.801215947E-1,-3.160346150E-1,9.780313492E0
1.006121191E1,2.825157940E-1,-3.040636182E-1,9.799467087E0
1.007317480E1,2.992752194E-1,-3.184288144E-1,9.849745750E0
1.008318457E1,3.088520169E-1,-3.256114423E-1,9.880870819E0
1.009511694E1,2.873041928E-1,-3.232172430E-1,9.876082420E0
1.010512670E1,2.609679997E-1,-3.399766386E-1,9.897629738E0
1.011708960E1,2.873041928E-1,-3.543418646E-1,9.892841339E0
1.012902197E1,2.873041928E-1,-3.902548850E-1,9.911994934E0
1.014101538E1,2.825157940E-1,-3.758896589E-1,9.902418137E0
1.015297827E1,2.992752194E-1,-3.591302633E-1,9.852140427E0
1.016497168E1,2.537853718E-1,-3.423708379E-1,9.813833237E0
1.017693457E1,2.801215947E-1,-3.711012602E-1,9.792284966E0
1.018694433E1,2.777273953E-1,-3.591302633E-1,9.801861763E0
1.019890722E1,2.633621991E-1,-3.758896589E-1,9.821015358E0
1.020891699E1,2.825157940E-1,-3.591302633E-1,9.873687744E0
1.022091040E1,3.088520169E-1,-3.974374831E-1,9.897629738E0
1.023287329E1,2.944868207E-1,-3.711012602E-1,9.921571732E0
1.024288305E1,2.849099934E-1,-3.687070608E-1,9.911994934E0
1.025487646E1,2.466027737E-1,-3.998316824E-1,9.919178009E0
1.026686987E1,2.849099934E-1,-3.639186621E-1,9.890447617E0
1.027687964E1,2.729389966E-1,-3.758896589E-1,9.847352028E0
1.028884253E1,2.489969730E-1,-3.615244627E-1,9.763554573E0
1.030083593E1,2.944868207E-1,-4.118026793E-1,9.749189377E0
1.031276831E1,2.825157940E-1,-4.213795066E-1,9.773131371E0
1.032277807E1,3.040636182E-1,-3.998316824E-1,9.868899345E0
1.033471044E1,3.016694188E-1,-3.567360640E-1,9.885659218E0
1.034472021E1,2.801215947E-1,-3.663128614E-1,9.897629738E0
1.035668310E1,2.777273953E-1,-3.830722570E-1,9.945513725E0
1.036861547E1,2.753331959E-1,-4.285621047E-1,9.895236015E0
1.037862524E1,2.633621991E-1,-4.189853072E-1,9.868899345E0
1.038863501E1,2.346317619E-1,-4.070142806E-1,9.861717224E0
1.040062841E1,2.705447972E-1,-3.782838583E-1,9.856928825E0
1.041256079E1,2.657563984E-1,-3.998316824E-1,9.816226959E0
1.042257055E1,2.920926213E-1,-4.022258818E-1,9.811438560E0
1.043453344E1,2.992752194E-1,-3.902548850E-1,9.801861763E0
1.044454321E1,3.136404157E-1,-3.782838583E-1,9.854534149E0
1.045653662E1,3.040636182E-1,-3.854664862E-1,9.871294022E0
1.046853003E1,2.705447972E-1,-4.070142806E-1,9.895236015E0
1.048052343E1,2.585737705E-1,-4.261679053E-1,9.864110947E0
1.049248632E1,2.873041928E-1,-4.381389022E-1,9.871294022E0
1.050249609E1,2.561795712E-1,-4.357447028E-1,9.868899345E0
1.051445898E1,2.418143749E-1,-4.357447028E-1,9.818621635E0
1.052446875E1,2.585737705E-1,-4.165911078E-1,9.818621635E0
1.053646215E1,3.136404157E-1,-4.118026793E-1,9.871294022E0
1.054842504E1,3.040636182E-1,-3.974374831E-1,9.911994934E0
1.056038794E1,2.873041928E-1,-3.974374831E-1,9.873687744E0
1.057039770E1,2.992752194E-1,-4.118026793E-1,9.847352028E0
1.058040747E1,3.040636182E-1,-3.926490843E-1,9.847352028E0
1.059233984E1,2.873041928E-1,-4.094084799E-1,9.842563629E0
1.060424170E1,2.753331959E-1,-4.357447028E-1,9.849745750E0
1.061620459E1,2.729389966E-1,-4.189853072E-1,9.890447617E0
1.062621435E1,2.681505978E-1,-4.285621047E-1,9.904812813E0
1.063817724E1,3.471592367E-1,-4.094084799E-1,9.895236015E0
1.065014013E1,3.303998411E-1,-4.141969085E-1,9.823410034E0
1.066014990E1,3.160346150E-1,-4.070142806E-1,9.813833237E0
1.067211279E1,3.088520169E-1,-4.309563041E-1,9.811438560E0
1.068401464E1,2.873041928E-1,-4.453215301E-1,9.852140427E0
1.069600805E1,3.016694188E-1,-4.477157295E-1,9.885659218E0
1.070601782E1,2.705447972E-1,-4.309563041E-1,9.916783333E0
1.071801123E1,2.729389966E-1,-4.477157295E-1,9.859322548E0
1.072997412E1,2.681505978E-1,-3.974374831E-1,9.868899345E0
1.074196753E1,2.873041928E-1,-3.806780577E-1,9.852140427E0
1.075197729E1,3.447650373E-1,-3.758896589E-1,9.856928825E0
1.076390966E1,3.064578176E-1,-3.830722570E-1,9.861717224E0
1.077584204E1,2.849099934E-1,-4.285621047E-1,9.797073364E0
1.078585180E1,2.705447972E-1,-4.572925270E-1,9.809044838E0
1.079781469E1,3.112462163E-1,-4.429273009E-1,9.809044838E0
1.080782446E1,2.825157940E-1,-4.237737060E-1,9.821015358E0
1.081783422E1,3.088520169E-1,-4.285621047E-1,9.923966408E0
1.082979712E1,3.567360640E-1,-4.596867263E-1,9.911994934E0
1.084172949E1,3.471592367E-1,-4.429273009E-1,9.854534149E0
1.085366186E1,2.920926213E-1,-4.237737060E-1,9.818621635E0
1.086367163E1,3.160346150E-1,-3.950432837E-1,9.847352028E0
1.087563452E1,3.303998411E-1,-4.046200812E-1,9.864110947E0
1.088564428E1,3.184288144E-1,-4.309563041E-1,9.840168953E0
1.089763769E1,2.968810201E-1,-4.429273009E-1,9.823410034E0
1.090963110E1,2.992752194E-1,-4.381389022E-1,9.842563629E0
1.091964086E1,2.944868207E-1,-4.548983276E-1,9.823410034E0
1.093160376E1,3.351882398E-1,-4.596867263E-1,9.842563629E0
1.094161352E1,3.232172430E-1,-4.525041282E-1,9.828198433E0
1.095360693E1,3.064578176E-1,-4.285621047E-1,9.849745750E0
1.096556982E1,2.968810201E-1,-4.333505034E-1,9.821015358E0
1.097557959E1,2.705447972E-1,-4.429273009E-1,9.842563629E0
1.098757299E1,3.208230138E-1,-4.477157295E-1,9.871294022E0
1.099950537E1,2.705447972E-1,-4.261679053E-1,9.902418137E0
1.101149878E1,2.633621991E-1,-4.333505034E-1,9.852140427E0
1.102150854E1,2.729389966E-1,-4.333505034E-1,9.890447617E0
1.103347143E1,2.849099934E-1,-4.501099288E-1,9.873687744E0
1.104348120E1,2.729389966E-1,-4.716577232E-1,9.873687744E0
1.105544409E1,2.729389966E-1,-4.572925270E-1,9.811438560E0
1.106545385E1,2.849099934E-1,-4.692635238E-1,9.813833237E0
1.107546362E1,3.040636182E-1,-4.620809257E-1,9.821015358E0
1.108739599E1,2.849099934E-1,-4.884171486E-1,9.861717224E0
1.109935888E1,2.322375625E-1,-5.027823448E-1,9.842563629E0
1.110936865E1,2.968810201E-1,-4.716577232E-1,9.849745750E0
1.111937841E1,2.896983922E-1,-4.333505034E-1,9.900024414E0
1.113137182E1,3.160346150E-1,-4.189853072E-1,9.880870819E0
1.114336523E1,2.466027737E-1,-4.812345505E-1,9.866505623E0
1.115532812E1,2.777273953E-1,-4.884171486E-1,9.904812813E0
1.116533789E1,2.705447972E-1,-4.908113480E-1,9.835380554E0
1.117723974E1,2.705447972E-1,-4.740519226E-1,9.837775230E0
1.118920263E1,2.609679997E-1,-4.501099288E-1,9.777919769E0
1.119921240E1,2.466027737E-1,-4.668693244E-1,9.777919769E0
1.121120581E1,2.370259613E-1,-4.812345505E-1,9.761159897E0
1.122319922E1,3.016694188E-1,-4.094084799E-1,9.864110947E0
1.123516210E1,3.040636182E-1,-4.572925270E-1,9.957485199E0
1.124709448E1,2.657563984E-1,-5.123591423E-1,9.931148529E0
1.125902685E1,2.896983922E-1,-5.147533417E-1,9.852140427E0
1.127098974E1,2.705447972E-1,-4.788403511E-1,9.888052940E0
1.128292212E1,2.513911724E-1,-4.740519226E-1,9.837775230E0
1.129491552E1,2.585737705E-1,-4.836287498E-1,9.770736694E0
1.130690893E1,2.729389966E-1,-4.979939461E-1,9.811438560E0
1.131887182E1,2.968810201E-1,-4.644751251E-1,9.854534149E0
1.133083471E1,2.968810201E-1,-4.501099288E-1,9.837775230E0
1.134282812E1,2.561795712E-1,-4.716577232E-1,9.844957352E0
1.135476049E1,2.777273953E-1,-4.692635238E-1,9.888052940E0
1.136666235E1,2.681505978E-1,-4.884171486E-1,9.883264542E0
1.137865576E1,2.537853718E-1,-4.740519226E-1,9.911994934E0
1.139061865E1,2.657563984E-1,-4.740519226E-1,9.840168953E0
1.140062841E1,2.585737705E-1,-4.453215301E-1,9.811438560E0
1.141262182E1,2.609679997E-1,-4.740519226E-1,9.832986832E0
1.142455420E1,3.112462163E-1,-4.860229492E-1,9.852140427E0
1.143645605E1,2.896983922E-1,-4.740519226E-1,9.821015358E0
1.144646582E1,2.513911724E-1,-4.932055473E-1,9.770736694E0
1.145842871E1,2.250549644E-1,-4.764461517E-1,9.847352028E0
1.147039160E1,2.729389966E-1,-4.908113480E-1,9.907206535E0
1.148040136E1,2.873041928E-1,-5.099649429E-1,9.909601212E0
1.149236425E1,2.418143749E-1,-4.572925270E-1,9.880870819E0
1.150237402E1,2.059013397E-1,-4.477157295E-1,9.837775230E0
1.151430639E1,2.322375625E-1,-4.477157295E-1,9.861717224E0
1.152623876E1,3.160346150E-1,-4.165911078E-1,9.880870819E0
1.153624853E1,3.016694188E-1,-4.285621047E-1,9.878476143E0
1.154824194E1,2.825157940E-1,-4.261679053E-1,9.842563629E0
1.156023535E1,2.873041928E-1,-4.644751251E-1,9.840168953E0
1.157219824E1,2.561795712E-1,-5.195417404E-1,9.895236015E0
1.158416113E1,2.873041928E-1,-5.363011956E-1,9.864110947E0
1.159612402E1,2.466027737E-1,-5.291185975E-1,9.837775230E0
1.160613378E1,2.489969730E-1,-5.099649429E-1,9.856928825E0
1.161809668E1,2.609679997E-1,-4.860229492E-1,9.844957352E0
1.163005957E1,2.825157940E-1,-4.692635238E-1,9.828198433E0
1.164205297E1,2.394201756E-1,-4.812345505E-1,9.844957352E0
1.165404638E1,3.016694188E-1,-4.477157295E-1,9.854534149E0
1.166405615E1,3.040636182E-1,-4.812345505E-1,9.866505623E0
1.167601904E1,2.633621991E-1,-4.860229492E-1,9.821015358E0
1.168801245E1,2.729389966E-1,-4.740519226E-1,9.852140427E0
1.170000586E1,2.418143749E-1,-4.836287498E-1,9.852140427E0
1.171199926E1,2.537853718E-1,-4.932055473E-1,9.842563629E0
1.172396215E1,2.633621991E-1,-4.908113480E-1,9.864110947E0
1.173595556E1,2.561795712E-1,-4.908113480E-1,9.864110947E0
1.174788794E1,2.442085743E-1,-5.027823448E-1,9.847352028E0
1.175789770E1,2.753331959E-1,-4.860229492E-1,9.852140427E0
1.176986059E1,2.920926213E-1,-4.764461517E-1,9.823410034E0
1.178182348E1,2.849099934E-1,-4.812345505E-1,9.840168953E0
1.179378637E1,2.705447972E-1,-4.596867263E-1,9.837775230E0
1.180574926E1,2.896983922E-1,-4.548983276E-1,9.866505623E0
1.181575903E1,2.681505978E-1,-4.692635238E-1,9.909601212E0
1.182576880E1,2.681505978E-1,-4.812345505E-1,9.878476143E0
1.183776220E1,2.705447972E-1,-4.764461517E-1,9.871294022E0
1.184972509E1,2.418143749E-1,-4.884171486E-1,9.753977776E0
1.185973486E1,2.896983922E-1,-4.764461517E-1,9.821015358E0
1.186974463E1,2.753331959E-1,-4.596867263E-1,9.825803757E0
1.188173803E1,2.585737705E-1,-4.477157295E-1,9.847352028E0
1.189370092E1,2.442085743E-1,-4.477157295E-1,9.880870819E0
1.190566381E1,2.585737705E-1,-4.716577232E-1,9.907206535E0
1.191762670E1,2.633621991E-1,-4.884171486E-1,9.919178009E0
1.192958960E1,2.801215947E-1,-4.860229492E-1,9.873687744E0
1.194155249E1,2.849099934E-1,-4.884171486E-1,9.849745750E0
1.195351538E1,2.442085743E-1,-4.955997467E-1,9.811438560E0
1.196352514E1,2.466027737E-1,-4.860229492E-1,9.804255486E0
1.197551855E1,2.561795712E-1,-4.788403511E-1,9.813833237E0
1.198751196E1,2.681505978E-1,-4.525041282E-1,9.854534149E0
1.199947485E1,2.657563984E-1,-4.596867263E-1,9.866505623E0
1.201146826E1,2.418143749E-1,-4.908113480E-1,9.878476143E0
1.202343115E1,2.537853718E-1,-5.027823448E-1,9.873687744E0
1.203539404E1,2.705447972E-1,-5.147533417E-1,9.890447617E0
1.204540380E1,2.633621991E-1,-5.195417404E-1,9.859322548E0
1.205733618E1,2.633621991E-1,-4.788403511E-1,9.878476143E0
1.206929907E1,2.896983922E-1,-4.764461517E-1,9.832986832E0
1.207930883E1,2.633621991E-1,-4.932055473E-1,9.823410034E0
1.209130224E1,2.609679997E-1,-4.955997467E-1,9.835380554E0
1.210329565E1,2.681505978E-1,-4.908113480E-1,9.878476143E0
1.211525854E1,3.064578176E-1,-4.644751251E-1,9.878476143E0
1.212722143E1,2.849099934E-1,-4.764461517E-1,9.861717224E0
1.213918432E1,2.753331959E-1,-4.884171486E-1,9.847352028E0
1.215114721E1,2.753331959E-1,-4.644751251E-1,9.854534149E0
1.216115698E1,2.513911724E-1,-4.716577232E-1,9.849745750E0
1.217311987E1,2.825157940E-1,-4.596867263E-1,9.811438560E0
1.218312964E1,2.825157940E-1,-4.692635238E-1,9.818621635E0
1.219509253E1,2.442085743E-1,-4.716577232E-1,9.835380554E0
1.220510229E1,2.442085743E-1,-4.812345505E-1,9.885659218E0
1.221706518E1,2.609679997E-1,-4.908113480E-1,9.914389610E0
1.222707495E1,2.681505978E-1,-4.979939461E-1,9.909601212E0
1.223708471E1,2.920926213E-1,-4.429273009E-1,9.873687744E0
1.224709448E1,2.753331959E-1,-4.620809257E-1,9.837775230E0
1.225710424E1,2.753331959E-1,-4.525041282E-1,9.859322548E0
1.226711401E1,2.944868207E-1,-4.525041282E-1,9.854534149E0
1.227910742E1,2.466027737E-1,-4.788403511E-1,9.816226959E0
1.229110083E1,3.184288144E-1,-4.453215301E-1,9.859322548E0
1.230303320E1,2.968810201E-1,-4.429273009E-1,9.837775230E0
1.231304297E1,2.202665508E-1,-4.405331016E-1,9.811438560E0
1.232503637E1,2.561795712E-1,-4.094084799E-1,9.842563629E0
1.233702978E1,2.968810201E-1,-3.543418646E-1,9.895236015E0
1.234899267E1,3.256114423E-1,-3.615244627E-1,9.900024414E0
1.236098608E1,3.208230138E-1,-4.381389022E-1,9.888052940E0
1.237297949E1,3.327940404E-1,-5.003881454E-1,9.873687744E0
1.238497290E1,3.280056417E-1,-4.764461517E-1,9.890447617E0
1.239696630E1,3.375824392E-1,-4.692635238E-1,9.897629738E0
1.240892920E1,3.088520169E-1,-4.381389022E-1,9.907206535E0
1.241893896E1,2.920926213E-1,-4.285621047E-1,9.837775230E0
1.242894873E1,3.016694188E-1,-4.070142806E-1,9.816226959E0
1.244091162E1,3.256114423E-1,-3.639186621E-1,9.828198433E0
1.245290503E1,3.327940404E-1,-3.399766386E-1,9.789890289E0
1.246489843E1,2.896983922E-1,-3.471592367E-1,9.780313492E0
1.247686132E1,3.016694188E-1,-3.639186621E-1,9.880870819E0
1.248687109E1,3.016694188E-1,-3.926490843E-1,9.962273598E0
1.249688086E1,3.112462163E-1,-4.094084799E-1,9.955090523E0
1.250884375E1,3.040636182E-1,-3.998316824E-1,9.943120003E0
1.252077612E1,3.112462163E-1,-3.806780577E-1,9.888052940E0
1.253276953E1,3.136404157E-1,-3.399766386E-1,9.804255486E0
1.254277929E1,3.423708379E-1,-3.256114423E-1,9.818621635E0
1.255278906E1,3.375824392E-1,-3.303998411E-1,9.785101891E0
1.256478247E1,3.375824392E-1,-3.351882398E-1,9.799467087E0
1.257677588E1,3.064578176E-1,-3.734954596E-1,9.751583099E0
1.258873876E1,2.968810201E-1,-3.591302633E-1,9.809044838E0
1.260067114E1,3.184288144E-1,-3.471592367E-1,9.873687744E0
1.261263403E1,3.567360640E-1,-3.256114423E-1,9.919178009E0
1.262264380E1,3.351882398E-1,-3.711012602E-1,9.916783333E0
1.263265356E1,2.944868207E-1,-3.543418646E-1,9.962273598E0
1.264266333E1,3.112462163E-1,-3.615244627E-1,9.957485199E0
1.265465673E1,3.112462163E-1,-3.256114423E-1,9.916783333E0
1.266655859E1,2.944868207E-1,-3.184288144E-1,9.840168953E0
1.267656836E1,3.136404157E-1,-3.112462163E-1,9.785101891E0
1.268856176E1,3.136404157E-1,-2.896983922E-1,9.782708168E0
1.269857153E1,3.208230138E-1,-3.184288144E-1,9.789890289E0
1.271050390E1,3.184288144E-1,-3.256114423E-1,9.823410034E0
1.272246679E1,3.639186621E-1,-2.920926213E-1,9.847352028E0
1.273442968E1,3.543418646E-1,-2.873041928E-1,9.883264542E0
1.274642309E1,3.088520169E-1,-2.825157940E-1,9.871294022E0
1.275643286E1,3.543418646E-1,-2.609679997E-1,9.911994934E0
1.276839575E1,3.639186621E-1,-2.896983922E-1,9.926360130E0
1.277840551E1,2.801215947E-1,-2.849099934E-1,9.890447617E0
1.279033789E1,3.208230138E-1,-2.849099934E-1,9.823410034E0
1.280034765E1,3.208230138E-1,-2.609679997E-1,9.830592155E0
1.281228003E1,3.232172430E-1,-2.585737705E-1,9.837775230E0
1.282424292E1,3.208230138E-1,-2.561795712E-1,9.821015358E0
1.283620581E1,3.232172430E-1,-2.896983922E-1,9.856928825E0
1.284819922E1,3.208230138E-1,-3.112462163E-1,9.888052940E0
1.286019262E1,3.303998411E-1,-3.136404157E-1,9.907206535E0
1.287215551E1,3.280056417E-1,-2.633621991E-1,9.868899345E0
1.288216528E1,3.256114423E-1,-2.298433632E-1,9.828198433E0
1.289409765E1,3.256114423E-1,-1.939303428E-1,9.835380554E0
1.290609106E1,3.711012602E-1,-1.843535304E-1,9.890447617E0
1.291610083E1,3.830722570E-1,-1.891419291E-1,9.849745750E0
1.292800268E1,3.327940404E-1,-2.082955539E-1,9.821015358E0
1.293801245E1,2.944868207E-1,-2.346317619E-1,9.825803757E0
1.294997534E1,3.208230138E-1,-2.226607651E-1,9.890447617E0
1.296190771E1,3.687070608E-1,-2.322375625E-1,9.931148529E0
1.297387060E1,3.591302633E-1,-2.346317619E-1,9.873687744E0
1.298388037E1,3.567360640E-1,-2.106897533E-1,9.835380554E0
1.299584326E1,3.375824392E-1,-1.939303428E-1,9.801861763E0
1.300780615E1,3.615244627E-1,-1.556231081E-1,9.816226959E0
1.301781591E1,3.902548850E-1,-1.244984865E-1,9.785101891E0
1.302980932E1,3.878606856E-1,-1.221042871E-1,9.794678688E0
1.304174170E1,3.495534360E-1,-1.508347094E-1,9.868899345E0
1.305370459E1,3.519476354E-1,-1.604115069E-1,9.878476143E0
1.306371435E1,3.615244627E-1,-1.388636976E-1,9.900024414E0
1.307567724E1,3.375824392E-1,-1.388636976E-1,9.931148529E0
1.308764013E1,3.375824392E-1,-1.149216816E-1,9.921571732E0
1.309963354E1,3.399766386E-1,-1.244984865E-1,9.873687744E0
1.311159643E1,3.303998411E-1,-1.292868853E-1,9.864110947E0
1.312160620E1,3.399766386E-1,-1.077390760E-1,9.849745750E0
1.313359960E1,3.639186621E-1,-8.379705995E-2,9.847352028E0
1.314553198E1,3.519476354E-1,-6.224924326E-2,9.842563629E0
1.315746435E1,3.471592367E-1,-8.858546615E-2,9.832986832E0
1.316942724E1,3.375824392E-1,-8.858546615E-2,9.840168953E0
1.317943701E1,3.447650373E-1,-8.858546615E-2,9.868899345E0
1.319139990E1,3.974374831E-1,-4.788403213E-2,9.892841339E0
1.320333227E1,3.950432837E-1,-5.746084079E-2,9.890447617E0
1.321529516E1,3.782838583E-1,-8.379705995E-2,9.873687744E0
1.322530493E1,3.902548850E-1,-1.053448766E-1,9.880870819E0
1.323531469E1,3.926490843E-1,-8.858546615E-2,9.880870819E0
1.324727758E1,3.758896589E-1,-5.746084079E-2,9.880870819E0
1.325728735E1,3.495534360E-1,-6.943184882E-2,9.880870819E0
1.326918920E1,3.447650373E-1,-8.379705995E-2,9.880870819E0
1.327919897E1,3.351882398E-1,-5.746084079E-2,9.856928825E0
1.329113134E1,3.543418646E-1,-4.788403213E-2,9.832986832E0
1.330312475E1,3.615244627E-1,-4.070143029E-2,9.823410034E0
1.331508764E1,3.806780577E-1,-5.746084079E-2,9.792284966E0
1.332509741E1,3.687070608E-1,-6.943184882E-2,9.797073364E0
1.333510717E1,3.734954596E-1,-7.182604820E-2,9.849745750E0
1.334707006E1,3.974374831E-1,-6.464344263E-2,9.883264542E0
1.335707983E1,3.711012602E-1,-5.027823523E-2,9.880870819E0
1.336907324E1,3.734954596E-1,-2.633621916E-2,9.897629738E0
1.337908300E1,4.022258818E-1,2.394201700E-3,9.897629738E0
1.339107641E1,3.854664862E-1,0.000000000E0,9.883264542E0
1.340306982E1,3.567360640E-1,-3.351882473E-2,9.854534149E0
1.341506323E1,3.519476354E-1,-4.070143029E-2,9.856928825E0
1.342702612E1,3.711012602E-1,-4.070143029E-2,9.871294022E0
1.343703588E1,3.591302633E-1,-6.703764945E-2,9.811438560E0
1.344896826E1,3.782838583E-1,-6.703764945E-2,9.840168953E0
1.346096167E1,3.758896589E-1,-4.548983276E-2,9.840168953E0
1.347292456E1,3.734954596E-1,-2.394201607E-2,9.835380554E0
1.348293432E1,3.878606856E-1,-1.197100803E-2,9.849745750E0
1.349492773E1,3.926490843E-1,2.394201700E-3,9.895236015E0
1.350689062E1,3.615244627E-1,-9.576806799E-3,9.835380554E0
1.351885351E1,3.471592367E-1,-9.576806799E-3,9.873687744E0
1.352886328E1,3.663128614E-1,-1.915361360E-2,9.911994934E0
1.354082617E1,3.543418646E-1,-1.675941236E-2,9.885659218E0
1.355278906E1,3.639186621E-1,-3.112462163E-2,9.861717224E0
1.356478247E1,3.663128614E-1,-1.197100803E-2,9.847352028E0
1.357674536E1,3.567360640E-1,-2.154781483E-2,9.856928825E0
1.358675512E1,3.663128614E-1,-2.154781483E-2,9.871294022E0
1.359874853E1,3.543418646E-1,-1.197100803E-2,9.849745750E0
1.361071142E1,3.806780577E-1,-1.197100803E-2,9.873687744E0
1.362072119E1,3.567360640E-1,-3.112462163E-2,9.854534149E0
1.363073095E1,3.734954596E-1,-9.576806799E-3,9.883264542E0
1.364074072E1,3.734954596E-1,-1.915361360E-2,9.856928825E0
1.365270361E1,3.447650373E-1,-2.873042040E-2,9.801861763E0
1.366271338E1,3.567360640E-1,-4.548983276E-2,9.854534149E0
1.367467626E1,3.711012602E-1,-2.394201700E-3,9.897629738E0
1.368468603E1,3.830722570E-1,4.788403399E-3,9.919178009E0
1.369658789E1,3.567360640E-1,7.182605099E-3,9.880870819E0
1.370858130E1,3.423708379E-1,0.000000000E0,9.849745750E0
1.371859106E1,3.519476354E-1,0.000000000E0,9.883264542E0
1.373052343E1,3.591302633E-1,-1.915361360E-2,9.828198433E0
1.374053320E1,3.399766386E-1,-9.576806799E-3,9.809044838E0
1.375054297E1,3.854664862E-1,-2.394201700E-3,9.797073364E0
1.376250586E1,3.758896589E-1,4.788403399E-3,9.813833237E0
1.377449926E1,3.639186621E-1,1.915361360E-2,9.880870819E0
1.378646215E1,3.830722570E-1,-9.576806799E-3,9.945513725E0
1.379647192E1,3.543418646E-1,-1.915361360E-2,9.900024414E0
1.380843481E1,3.399766386E-1,9.576806799E-3,9.909601212E0
1.381844458E1,3.615244627E-1,0.000000000E0,9.892841339E0
1.383040747E1,4.022258818E-1,-9.576806799E-3,9.835380554E0
1.384041723E1,3.687070608E-1,2.633621916E-2,9.792284966E0
1.385241064E1,3.830722570E-1,2.394201607E-2,9.809044838E0
1.386242041E1,3.687070608E-1,9.576806799E-3,9.828198433E0
1.387438330E1,3.687070608E-1,-3.830722719E-2,9.866505623E0
1.388631567E1,3.519476354E-1,-3.591302410E-2,9.844957352E0
1.389632544E1,3.447650373E-1,-1.915361360E-2,9.880870819E0
1.390825781E1,3.734954596E-1,1.197100803E-2,9.883264542E0
1.391826757E1,3.950432837E-1,1.675941236E-2,9.883264542E0
1.393023047E1,3.567360640E-1,-1.915361360E-2,9.888052940E0
1.394213232E1,3.471592367E-1,-1.675941236E-2,9.885659218E0
1.395406469E1,3.711012602E-1,1.915361360E-2,9.859322548E0
1.396605810E1,3.351882398E-1,2.154781483E-2,9.864110947E0
1.397805151E1,3.399766386E-1,4.788403399E-3,9.840168953E0
1.399001440E1,3.471592367E-1,-9.576806799E-3,9.832986832E0
1.400002417E1,3.375824392E-1,-2.394201700E-3,9.821015358E0
1.401201757E1,3.567360640E-1,0.000000000E0,9.825803757E0
1.402401098E1,3.615244627E-1,9.576806799E-3,9.868899345E0
1.403402075E1,3.519476354E-1,4.788403399E-3,9.888052940E0
1.404595312E1,3.591302633E-1,7.182605099E-3,9.897629738E0
1.405596289E1,3.711012602E-1,2.394201607E-2,9.916783333E0
1.406792578E1,3.950432837E-1,9.576806799E-3,9.902418137E0
1.407793554E1,3.543418646E-1,0.000000000E0,9.859322548E0
1.408992895E1,3.615244627E-1,-3.591302410E-2,9.821015358E0
1.409993872E1,3.711012602E-1,0.000000000E0,9.840168953E0
1.411190161E1,3.758896589E-1,2.154781483E-2,9.864110947E0
1.412386450E1,3.830722570E-1,1.675941236E-2,9.880870819E0
1.413387426E1,3.519476354E-1,-2.633621916E-2,9.873687744E0
1.414583715E1,3.471592367E-1,-3.830722719E-2,9.876082420E0
1.415780004E1,3.327940404E-1,1.436521020E-2,9.840168953E0
1.416973242E1,3.782838583E-1,5.267243832E-2,9.816226959E0
1.417974218E1,3.878606856E-1,6.703764945E-2,9.818621635E0
1.418975195E1,3.854664862E-1,3.591302410E-2,9.878476143E0
1.420171484E1,3.639186621E-1,2.394201700E-3,9.849745750E0
1.421370825E1,3.591302633E-1,-7.182605099E-3,9.852140427E0
1.422567114E1,3.663128614E-1,4.788403399E-3,9.900024414E0
1.423568090E1,3.615244627E-1,-2.394201700E-3,9.895236015E0
1.424764380E1,3.399766386E-1,-2.394201700E-3,9.868899345E0
1.425765356E1,3.567360640E-1,-2.394201700E-3,9.840168953E0
1.426961645E1,3.591302633E-1,1.915361360E-2,9.816226959E0
1.427962622E1,3.734954596E-1,3.112462163E-2,9.813833237E0
1.429161963E1,3.854664862E-1,-2.394201700E-3,9.830592155E0
1.430361303E1,3.878606856E-1,9.576806799E-3,9.876082420E0
1.431554541E1,3.734954596E-1,0.000000000E0,9.926360130E0
1.432747778E1,3.758896589E-1,-4.788403399E-3,9.892841339E0
1.433947119E1,3.782838583E-1,-4.788403399E-3,9.876082420E0
1.434948095E1,3.711012602E-1,-2.394201700E-3,9.876082420E0
1.436147436E1,3.926490843E-1,1.675941236E-2,9.852140427E0
1.437346777E1,3.734954596E-1,7.182605099E-3,9.806650162E0
1.438543066E1,3.926490843E-1,3.112462163E-2,9.797073364E0
1.439742407E1,3.830722570E-1,4.548983276E-2,9.785101891E0
1.440938696E1,3.399766386E-1,7.182605099E-3,9.832986832E0
1.442134985E1,3.567360640E-1,-2.154781483E-2,9.876082420E0
1.443331274E1,3.639186621E-1,-1.675941236E-2,9.888052940E0
1.444527563E1,3.423708379E-1,-4.788403399E-3,9.914389610E0
1.445726904E1,3.711012602E-1,2.394201607E-2,9.931148529E0
1.446923193E1,3.711012602E-1,2.154781483E-2,9.900024414E0
1.447924170E1,3.663128614E-1,2.394201607E-2,9.916783333E0
1.449117407E1,3.782838583E-1,2.394201607E-2,9.885659218E0
1.450313696E1,3.950432837E-1,7.182605099E-3,9.801861763E0
1.451513037E1,3.447650373E-1,-2.154781483E-2,9.799467087E0
1.452712378E1,3.471592367E-1,-3.112462163E-2,9.809044838E0
1.453905615E1,3.447650373E-1,1.915361360E-2,9.859322548E0
1.454906591E1,3.902548850E-1,1.197100803E-2,9.864110947E0
1.456105932E1,3.663128614E-1,1.675941236E-2,9.900024414E0
1.457305273E1,3.734954596E-1,1.197100803E-2,9.919178009E0
1.458501562E1,3.806780577E-1,-1.675941236E-2,9.909601212E0
1.459691748E1,3.663128614E-1,1.675941236E-2,9.914389610E0
1.460884985E1,3.639186621E-1,3.112462163E-2,9.852140427E0
1.461885962E1,3.687070608E-1,2.394201607E-2,9.823410034E0
1.463079199E1,3.519476354E-1,9.576806799E-3,9.787496567E0
1.464275488E1,3.711012602E-1,3.351882473E-2,9.823410034E0
1.465276464E1,3.567360640E-1,-1.436521020E-2,9.828198433E0
1.466277441E1,3.615244627E-1,-2.154781483E-2,9.866505623E0
1.467476782E1,3.854664862E-1,1.436521020E-2,9.909601212E0
1.468676123E1,3.854664862E-1,9.576806799E-3,9.921571732E0
1.469875464E1,3.615244627E-1,1.436521020E-2,9.871294022E0
1.470876440E1,3.782838583E-1,9.576806799E-3,9.878476143E0
1.471877417E1,3.926490843E-1,2.633621916E-2,9.892841339E0
1.473070654E1,3.543418646E-1,2.154781483E-2,9.849745750E0
1.474071630E1,3.591302633E-1,4.309562966E-2,9.837775230E0
1.475267920E1,3.806780577E-1,3.112462163E-2,9.785101891E0
1.476467260E1,3.495534360E-1,4.788403399E-3,9.856928825E0
1.477468237E1,3.591302633E-1,1.436521020E-2,9.880870819E0
1.478664526E1,3.758896589E-1,-1.197100803E-2,9.864110947E0
1.479665503E1,3.423708379E-1,-4.788403399E-3,9.873687744E0
1.480858740E1,3.687070608E-1,-7.182605099E-3,9.883264542E0
1.481859716E1,3.854664862E-1,2.873042040E-2,9.868899345E0
1.483059057E1,3.663128614E-1,2.394201607E-2,9.852140427E0
1.484060034E1,3.519476354E-1,2.154781483E-2,9.825803757E0
1.485253271E1,3.711012602E-1,2.154781483E-2,9.856928825E0
1.486254248E1,3.687070608E-1,1.675941236E-2,9.900024414E0
1.487255224E1,3.639186621E-1,-4.788403399E-3,9.902418137E0
1.488451513E1,3.591302633E-1,-2.394201700E-3,9.861717224E0
1.489647802E1,3.687070608E-1,3.112462163E-2,9.825803757E0
1.490841040E1,3.830722570E-1,4.309562966E-2,9.830592155E0
1.492031225E1,3.447650373E-1,4.548983276E-2,9.844957352E0
1.493227514E1,3.423708379E-1,1.915361360E-2,9.866505623E0
1.494426855E1,3.447650373E-1,-2.394201700E-3,9.926360130E0
1.495623144E1,3.567360640E-1,-2.154781483E-2,9.907206535E0
1.496822485E1,3.711012602E-1,1.675941236E-2,9.895236015E0
1.498021826E1,3.734954596E-1,9.576806799E-3,9.866505623E0
1.499218115E1,3.950432837E-1,2.394201607E-2,9.868899345E0
1.500417456E1,3.926490843E-1,1.197100803E-2,9.828198433E0
1.501616797E1,3.447650373E-1,-4.788403399E-3,9.825803757E0
1.502810034E1,3.543418646E-1,0.000000000E0,9.878476143E0
1.504000219E1,3.471592367E-1,4.788403399E-3,9.883264542E0
1.505001196E1,3.543418646E-1,3.591302410E-2,9.933543205E0
1.506002172E1,3.471592367E-1,4.070143029E-2,9.895236015E0
1.507003149E1,3.232172430E-1,3.591302410E-2,9.885659218E0
1.508004126E1,3.543418646E-1,2.633621916E-2,9.878476143E0
1.509200415E1,3.854664862E-1,2.154781483E-2,9.821015358E0
1.510399755E1,3.734954596E-1,1.197100803E-2,9.811438560E0
1.511400732E1,3.758896589E-1,0.000000000E0,9.797073364E0
1.512597021E1,3.711012602E-1,-1.436521020E-2,9.844957352E0
1.513597998E1,3.758896589E-1,-3.591302410E-2,9.832986832E0
1.514794287E1,3.902548850E-1,-1.197100803E-2,9.849745750E0
1.515984472E1,3.782838583E-1,1.675941236E-2,9.852140427E0
1.517183813E1,3.806780577E-1,2.873042040E-2,9.840168953E0
1.518380102E1,3.926490843E-1,3.112462163E-2,9.856928825E0
1.519576391E1,3.519476354E-1,4.788403399E-3,9.885659218E0
1.520577368E1,3.639186621E-1,0.000000000E0,9.892841339E0
1.521767553E1,3.878606856E-1,-1.197100803E-2,9.957485199E0
1.522963842E1,3.926490843E-1,-9.576806799E-3,9.876082420E0
1.524160131E1,3.663128614E-1,-2.394201700E-3,9.804255486E0
1.525161108E1,3.687070608E-1,-1.197100803E-2,9.753977776E0
1.526162085E1,3.878606856E-1,2.394201607E-2,9.852140427E0
1.527163061E1,3.926490843E-1,-2.394201700E-3,9.854534149E0
1.528362402E1,3.399766386E-1,-7.182605099E-3,9.825803757E0
1.529561743E1,3.399766386E-1,2.154781483E-2,9.868899345E0
1.530758032E1,3.687070608E-1,1.436521020E-2,9.854534149E0
1.531951269E1,3.782838583E-1,1.915361360E-2,9.921571732E0
1.533150610E1,3.711012602E-1,9.576806799E-3,9.883264542E0
1.534343847E1,3.711012602E-1,-9.576806799E-3,9.902418137E0
1.535344824E1,3.519476354E-1,-1.197100803E-2,9.840168953E0
1.536541113E1,3.639186621E-1,-4.788403399E-3,9.830592155E0
1.537740454E1,3.854664862E-1,2.394201700E-3,9.811438560E0
1.538741430E1,3.830722570E-1,-2.394201700E-3,9.830592155E0
1.539937719E1,3.878606856E-1,-2.394201700E-3,9.888052940E0
1.541137060E1,3.711012602E-1,-2.873042040E-2,9.868899345E0
1.542333349E1,3.806780577E-1,-4.070143029E-2,9.900024414E0
1.543334326E1,3.687070608E-1,-2.873042040E-2,9.871294022E0
1.544530615E1,3.782838583E-1,-3.830722719E-2,9.852140427E0
1.545729956E1,3.663128614E-1,-3.112462163E-2,9.871294022E0
1.546926245E1,3.926490843E-1,2.394201700E-3,9.861717224E0
1.547927221E1,3.543418646E-1,4.788403399E-3,9.866505623E0
1.549126562E1,3.591302633E-1,-7.182605099E-3,9.840168953E0
1.550322851E1,3.998316824E-1,-1.915361360E-2,9.864110947E0
1.551323828E1,3.399766386E-1,-1.675941236E-2,9.823410034E0
1.552520117E1,3.639186621E-1,-3.112462163E-2,9.837775230E0
1.553521093E1,3.830722570E-1,-4.548983276E-2,9.854534149E0
1.554714331E1,3.639186621E-1,-2.873042040E-2,9.892841339E0
1.555715307E1,3.615244627E-1,-9.576806799E-3,9.914389610E0
1.556914648E1,3.854664862E-1,-1.197100803E-2,9.852140427E0
1.558113989E1,3.830722570E-1,7.182605099E-3,9.873687744E0
1.559114965E1,3.974374831E-1,-3.351882473E-2,9.868899345E0
1.560314306E1,3.399766386E-1,-8.619125932E-2,9.876082420E0
1.561315283E1,3.567360640E-1,-1.364694983E-1,9.871294022E0
1.562514624E1,3.615244627E-1,-9.576806426E-2,9.866505623E0
1.563713964E1,3.543418646E-1,-7.182604820E-2,9.854534149E0
1.564913305E1,3.806780577E-1,-9.337386489E-2,9.809044838E0
1.566112646E1,3.639186621E-1,-6.464344263E-2,9.830592155E0
1.567302832E1,3.615244627E-1,-4.788403213E-2,9.830592155E0
1.568502172E1,3.806780577E-1,-4.070143029E-2,9.876082420E0
1.569698462E1,3.806780577E-1,-7.661445439E-2,9.883264542E0
1.570891699E1,3.567360640E-1,-1.005564705E-1,9.902418137E0
1.572087988E1,3.591302633E-1,-9.576806426E-2,9.878476143E0
1.573088964E1,3.471592367E-1,-1.005564705E-1,9.876082420E0
1.574285254E1,3.471592367E-1,-1.005564705E-1,9.866505623E0
1.575286230E1,3.399766386E-1,-8.858546615E-2,9.852140427E0
1.576485571E1,3.615244627E-1,-5.746084079E-2,9.844957352E0
1.577678808E1,3.495534360E-1,-6.703764945E-2,9.859322548E0
1.578878149E1,3.567360640E-1,-8.379705995E-2,9.873687744E0
1.579879126E1,3.639186621E-1,-1.197100878E-1,9.866505623E0
1.581075415E1,3.495534360E-1,-1.077390760E-1,9.849745750E0
1.582076391E1,3.591302633E-1,-9.337386489E-2,9.823410034E0
1.583272680E1,3.567360640E-1,-9.337386489E-2,9.856928825E0
1.584273657E1,3.208230138E-1,-1.173158810E-1,9.842563629E0
1.585472998E1,3.184288144E-1,-1.101332754E-1,9.871294022E0
1.586669287E1,3.567360640E-1,-9.576806426E-2,9.895236015E0
1.587670263E1,3.639186621E-1,-7.182604820E-2,9.888052940E0
1.588671240E1,3.902548850E-1,-5.027823523E-2,9.871294022E0
1.589672216E1,3.854664862E-1,-5.746084079E-2,9.864110947E0
1.590868505E1,4.046200812E-1,-9.097966552E-2,9.852140427E0
1.592064794E1,3.734954596E-1,-1.197100878E-1,9.931148529E0
1.593065771E1,3.256114423E-1,-1.699883193E-1,9.902418137E0
1.594265112E1,3.184288144E-1,-2.106897533E-1,9.878476143E0
1.595464453E1,2.968810201E-1,-1.819593310E-1,9.835380554E0
1.596660742E1,3.256114423E-1,-1.244984865E-1,9.832986832E0
1.597850927E1,3.543418646E-1,-1.029506698E-1,9.823410034E0
1.599047216E1,3.519476354E-1,-9.576806426E-2,9.813833237E0
1.600243505E1,3.663128614E-1,-1.173158810E-1,9.888052940E0
1.601442846E1,3.471592367E-1,-1.771709323E-1,9.873687744E0
1.602639135E1,3.184288144E-1,-2.154781520E-1,9.873687744E0
1.603832373E1,3.950432837E-1,-1.843535304E-1,9.900024414E0
1.605031714E1,3.902548850E-1,-1.197100878E-1,9.873687744E0
1.606228002E1,3.375824392E-1,-1.221042871E-1,9.837775230E0
1.607424292E1,3.926490843E-1,-7.900865376E-2,9.823410034E0
1.608614477E1,3.591302633E-1,-1.340752989E-1,9.847352028E0
1.609804663E1,3.758896589E-1,-1.460463107E-1,9.888052940E0
1.610997900E1,3.423708379E-1,-1.939303428E-1,9.883264542E0
1.611998877E1,3.519476354E-1,-1.795651317E-1,9.852140427E0
1.613192114E1,3.064578176E-1,-1.987187415E-1,9.873687744E0
1.614385351E1,3.423708379E-1,-2.178723514E-1,9.897629738E0
1.615386328E1,3.567360640E-1,-1.987187415E-1,9.871294022E0
1.616579565E1,3.639186621E-1,-2.346317619E-1,9.842563629E0
1.617775854E1,3.663128614E-1,-2.346317619E-1,9.904812813E0
1.618776831E1,3.591302633E-1,-2.011129409E-1,9.892841339E0
1.619970068E1,3.567360640E-1,-2.059013397E-1,9.854534149E0
1.621169409E1,3.232172430E-1,-1.939303428E-1,9.821015358E0
1.622365698E1,3.303998411E-1,-1.747767180E-1,9.792284966E0
1.623366674E1,3.399766386E-1,-1.819593310E-1,9.830592155E0
1.624566015E1,3.160346150E-1,-1.987187415E-1,9.859322548E0
1.625566992E1,3.567360640E-1,-1.628057212E-1,9.900024414E0
1.626760229E1,3.615244627E-1,-1.675941199E-1,9.876082420E0
1.627956518E1,3.591302633E-1,-1.795651317E-1,9.864110947E0
1.628957495E1,3.591302633E-1,-2.035071403E-1,9.876082420E0
1.629958471E1,3.351882398E-1,-2.370259613E-1,9.911994934E0
1.630959448E1,3.088520169E-1,-2.729389966E-1,9.890447617E0
1.632158789E1,3.040636182E-1,-2.537853718E-1,9.864110947E0
1.633352026E1,3.208230138E-1,-2.226607651E-1,9.916783333E0
1.634548315E1,2.968810201E-1,-2.035071403E-1,9.856928825E0
1.635747656E1,3.160346150E-1,-2.298433632E-1,9.816226959E0
1.636943945E1,3.447650373E-1,-2.250549644E-1,9.840168953E0
1.638140234E1,3.495534360E-1,-2.059013397E-1,9.861717224E0
1.639141210E1,3.663128614E-1,-1.867477298E-1,9.852140427E0
1.640340551E1,3.591302633E-1,-2.346317619E-1,9.835380554E0
1.641539892E1,3.208230138E-1,-2.825157940E-1,9.847352028E0
1.642540869E1,3.064578176E-1,-3.160346150E-1,9.818621635E0
1.643734106E1,3.280056417E-1,-2.777273953E-1,9.890447617E0
1.644933447E1,3.232172430E-1,-2.394201756E-1,9.911994934E0
1.646126684E1,3.351882398E-1,-2.178723514E-1,9.885659218E0
1.647326025E1,3.351882398E-1,-2.298433632E-1,9.806650162E0
1.648525366E1,3.543418646E-1,-2.250549644E-1,9.835380554E0
1.649526342E1,3.495534360E-1,-2.226607651E-1,9.821015358E0
1.650719580E1,3.447650373E-1,-2.418143749E-1,9.849745750E0
1.651909765E1,3.160346150E-1,-2.729389966E-1,9.866505623E0
1.652910742E1,3.399766386E-1,-3.016694188E-1,9.868899345E0
1.654107031E1,3.399766386E-1,-2.729389966E-1,9.890447617E0
1.655108007E1,3.280056417E-1,-2.633621991E-1,9.907206535E0
1.656304296E1,3.495534360E-1,-2.442085743E-1,9.880870819E0
1.657503637E1,3.447650373E-1,-2.178723514E-1,9.868899345E0
1.658504614E1,3.280056417E-1,-2.513911724E-1,9.844957352E0
1.659703955E1,3.303998411E-1,-2.729389966E-1,9.832986832E0
1.660903296E1,3.495534360E-1,-2.729389966E-1,9.842563629E0
1.662099584E1,3.423708379E-1,-2.537853718E-1,9.878476143E0
1.663100561E1,3.136404157E-1,-2.537853718E-1,9.842563629E0
1.664296850E1,3.016694188E-1,-2.705447972E-1,9.825803757E0
1.665297827E1,3.040636182E-1,-2.920926213E-1,9.883264542E0
1.666298803E1,2.968810201E-1,-3.351882398E-1,9.900024414E0
1.667498144E1,2.777273953E-1,-3.160346150E-1,9.938331604E0
1.668694433E1,3.303998411E-1,-2.633621991E-1,9.914389610E0
1.669893774E1,3.351882398E-1,-2.394201756E-1,9.883264542E0
1.671090063E1,3.423708379E-1,-2.154781520E-1,9.847352028E0
1.672091040E1,3.591302633E-1,-2.298433632E-1,9.789890289E0
1.673290380E1,3.495534360E-1,-2.705447972E-1,9.830592155E0
1.674486670E1,3.806780577E-1,-3.112462163E-1,9.871294022E0
1.675487646E1,3.591302633E-1,-3.351882398E-1,9.890447617E0
1.676677832E1,3.232172430E-1,-3.351882398E-1,9.892841339E0
1.677678808E1,2.992752194E-1,-3.232172430E-1,9.883264542E0
1.678872046E1,3.160346150E-1,-3.232172430E-1,9.842563629E0
1.680071386E1,3.280056417E-1,-3.136404157E-1,9.832986832E0
1.681072363E1,3.711012602E-1,-2.705447972E-1,9.787496567E0
1.682265600E1,3.854664862E-1,-2.825157940E-1,9.799467087E0
1.683461889E1,3.687070608E-1,-3.088520169E-1,9.847352028E0
1.684661230E1,3.375824392E-1,-3.256114423E-1,9.878476143E0
1.685857519E1,3.351882398E-1,-3.615244627E-1,9.885659218E0
1.686858496E1,3.399766386E-1,-3.758896589E-1,9.890447617E0
1.688057836E1,3.232172430E-1,-3.399766386E-1,9.890447617E0
1.689254126E1,3.615244627E-1,-3.280056417E-1,9.876082420E0
1.690453466E1,3.351882398E-1,-3.160346150E-1,9.859322548E0
1.691454443E1,3.160346150E-1,-3.375824392E-1,9.832986832E0
1.692650732E1,3.256114423E-1,-3.112462163E-1,9.830592155E0
1.693651709E1,3.423708379E-1,-3.208230138E-1,9.825803757E0
1.694847998E1,3.423708379E-1,-3.375824392E-1,9.832986832E0
1.695848974E1,3.519476354E-1,-3.351882398E-1,9.866505623E0
1.697042212E1,3.351882398E-1,-3.375824392E-1,9.890447617E0
1.698241552E1,3.208230138E-1,-3.399766386E-1,9.888052940E0
1.699242529E1,3.615244627E-1,-3.303998411E-1,9.868899345E0
1.700435766E1,3.399766386E-1,-3.303998411E-1,9.852140427E0
1.701436743E1,3.711012602E-1,-3.088520169E-1,9.885659218E0
1.702633032E1,3.639186621E-1,-3.280056417E-1,9.847352028E0
1.703634008E1,3.519476354E-1,-3.232172430E-1,9.823410034E0
1.704833349E1,3.112462163E-1,-3.375824392E-1,9.789890289E0
1.706029638E1,3.280056417E-1,-3.543418646E-1,9.840168953E0
1.707030615E1,3.447650373E-1,-3.495534360E-1,9.852140427E0
1.708226904E1,3.112462163E-1,-3.591302633E-1,9.890447617E0
1.709227880E1,3.280056417E-1,-3.519476354E-1,9.871294022E0
1.710424170E1,3.256114423E-1,-3.687070608E-1,9.859322548E0
1.711425146E1,3.423708379E-1,-3.519476354E-1,9.866505623E0
1.712624487E1,3.495534360E-1,-3.758896589E-1,9.856928825E0
1.713625464E1,3.375824392E-1,-3.782838583E-1,9.849745750E0
1.714824804E1,3.184288144E-1,-3.567360640E-1,9.837775230E0
1.716021093E1,3.256114423E-1,-3.471592367E-1,9.871294022E0
1.717217382E1,3.375824392E-1,-3.447650373E-1,9.900024414E0
1.718413672E1,3.160346150E-1,-3.878606856E-1,9.866505623E0
1.719609960E1,2.753331959E-1,-3.854664862E-1,9.866505623E0
1.720806250E1,3.303998411E-1,-3.854664862E-1,9.852140427E0
1.722002539E1,3.232172430E-1,-3.519476354E-1,9.859322548E0
1.723003515E1,3.902548850E-1,-3.998316824E-1,9.895236015E0
1.724202856E1,3.543418646E-1,-4.237737060E-1,9.801861763E0
1.725402197E1,3.543418646E-1,-4.046200812E-1,9.844957352E0
1.726403173E1,3.543418646E-1,-3.878606856E-1,9.837775230E0
1.727596411E1,3.471592367E-1,-3.758896589E-1,9.871294022E0
1.728789648E1,3.663128614E-1,-4.189853072E-1,9.878476143E0
1.729790625E1,3.256114423E-1,-4.213795066E-1,9.883264542E0
1.730791601E1,3.591302633E-1,-3.902548850E-1,9.909601212E0
1.731981787E1,3.567360640E-1,-3.974374831E-1,9.902418137E0
1.732982763E1,3.447650373E-1,-4.022258818E-1,9.849745750E0
1.734179052E1,3.447650373E-1,-4.046200812E-1,9.792284966E0
1.735180029E1,3.447650373E-1,-4.118026793E-1,9.797073364E0
1.736379370E1,3.591302633E-1,-3.806780577E-1,9.821015358E0
1.737380346E1,3.615244627E-1,-4.022258818E-1,9.809044838E0
1.738576635E1,3.280056417E-1,-4.118026793E-1,9.847352028E0
1.739772924E1,3.663128614E-1,-4.309563041E-1,9.847352028E0
1.740972265E1,3.519476354E-1,-4.213795066E-1,9.902418137E0
1.742168554E1,3.375824392E-1,-4.141969085E-1,9.880870819E0
1.743169531E1,3.351882398E-1,-4.237737060E-1,9.842563629E0
1.744365820E1,3.399766386E-1,-3.854664862E-1,9.890447617E0
1.745565161E1,3.256114423E-1,-3.711012602E-1,9.890447617E0
1.746761450E1,3.351882398E-1,-3.591302633E-1,9.837775230E0
1.747762426E1,3.423708379E-1,-3.902548850E-1,9.847352028E0
1.748763403E1,3.519476354E-1,-4.094084799E-1,9.821015358E0
1.749962744E1,3.830722570E-1,-4.165911078E-1,9.842563629E0
1.751162084E1,3.902548850E-1,-4.285621047E-1,9.878476143E0
1.752358374E1,3.806780577E-1,-4.525041282E-1,9.935936928E0
1.753557714E1,3.351882398E-1,-5.075707436E-1,9.919178009E0
1.754754004E1,3.136404157E-1,-5.123591423E-1,9.888052940E0
1.755953344E1,3.112462163E-1,-4.620809257E-1,9.830592155E0
1.756954321E1,3.064578176E-1,-4.141969085E-1,9.811438560E0
1.758150610E1,3.303998411E-1,-3.926490843E-1,9.801861763E0
1.759349951E1,3.495534360E-1,-3.806780577E-1,9.789890289E0
1.760549292E1,3.399766386E-1,-4.022258818E-1,9.806650162E0
1.761739477E1,3.734954596E-1,-4.213795066E-1,9.861717224E0
1.762938818E1,3.758896589E-1,-4.429273009E-1,9.844957352E0
1.764138159E1,4.022258818E-1,-4.477157295E-1,9.880870819E0
1.765334448E1,3.806780577E-1,-4.525041282E-1,9.911994934E0
1.766335424E1,3.926490843E-1,-4.668693244E-1,9.883264542E0
1.767534765E1,3.734954596E-1,-4.405331016E-1,9.859322548E0
1.768728002E1,3.567360640E-1,-4.189853072E-1,9.852140427E0
1.769921240E1,3.711012602E-1,-4.189853072E-1,9.825803757E0
1.771120581E1,3.232172430E-1,-4.213795066E-1,9.787496567E0
1.772319922E1,3.184288144E-1,-4.405331016E-1,9.806650162E0
1.773510107E1,3.399766386E-1,-4.525041282E-1,9.825803757E0
1.774709448E1,3.782838583E-1,-4.572925270E-1,9.840168953E0
1.775710424E1,3.639186621E-1,-4.548983276E-1,9.868899345E0
1.776711401E1,3.615244627E-1,-4.381389022E-1,9.931148529E0
1.777904638E1,3.615244627E-1,-4.429273009E-1,9.952696800E0
1.778905615E1,3.495534360E-1,-4.261679053E-1,9.928754807E0
1.780104956E1,3.495534360E-1,-4.429273009E-1,9.885659218E0
1.781301245E1,3.280056417E-1,-4.261679053E-1,9.823410034E0
1.782497534E1,3.280056417E-1,-4.046200812E-1,9.809044838E0
1.783498510E1,3.639186621E-1,-3.950432837E-1,9.840168953E0
1.784697851E1,3.471592367E-1,-4.165911078E-1,9.770736694E0
1.785894140E1,3.375824392E-1,-4.381389022E-1,9.830592155E0
1.786895117E1,3.423708379E-1,-4.979939461E-1,9.840168953E0
1.788091406E1,3.591302633E-1,-4.692635238E-1,9.895236015E0
1.789092382E1,4.118026793E-1,-4.668693244E-1,9.940725327E0
1.790288672E1,3.758896589E-1,-4.429273009E-1,9.935936928E0
1.791289648E1,3.591302633E-1,-4.381389022E-1,9.890447617E0
1.792488989E1,3.040636182E-1,-4.477157295E-1,9.816226959E0
1.793489965E1,3.303998411E-1,-4.572925270E-1,9.821015358E0
1.794683203E1,3.663128614E-1,-4.237737060E-1,9.821015358E0
1.795876440E1,3.615244627E-1,-4.381389022E-1,9.842563629E0
1.796877417E1,3.567360640E-1,-4.548983276E-1,9.840168953E0
1.798073706E1,3.711012602E-1,-4.740519226E-1,9.832986832E0
1.799269995E1,3.711012602E-1,-4.764461517E-1,9.854534149E0
1.800466284E1,3.351882398E-1,-4.812345505E-1,9.861717224E0
1.801467260E1,3.615244627E-1,-4.572925270E-1,9.883264542E0
1.802663549E1,3.519476354E-1,-4.501099288E-1,9.897629738E0
1.803862890E1,3.160346150E-1,-4.357447028E-1,9.859322548E0
1.804863867E1,3.375824392E-1,-4.525041282E-1,9.876082420E0
1.806063208E1,3.447650373E-1,-4.261679053E-1,9.890447617E0
1.807259497E1,3.639186621E-1,-4.094084799E-1,9.832986832E0
1.808455786E1,3.639186621E-1,-4.070142806E-1,9.818621635E0
1.809456762E1,3.711012602E-1,-4.094084799E-1,9.840168953E0
1.810653051E1,3.303998411E-1,-4.644751251E-1,9.849745750E0
1.811849340E1,3.399766386E-1,-4.740519226E-1,9.873687744E0
1.812850317E1,3.639186621E-1,-4.572925270E-1,9.897629738E0
1.814049658E1,3.351882398E-1,-4.381389022E-1,9.856928825E0
1.815248999E1,3.327940404E-1,-4.405331016E-1,9.818621635E0
1.816448339E1,3.543418646E-1,-4.285621047E-1,9.813833237E0
1.817647680E1,3.519476354E-1,-4.237737060E-1,9.823410034E0
1.818648657E1,3.471592367E-1,-4.189853072E-1,9.888052940E0
1.819841894E1,3.567360640E-1,-4.333505034E-1,9.895236015E0
1.820842871E1,3.471592367E-1,-4.381389022E-1,9.904812813E0
1.822039160E1,3.399766386E-1,-4.405331016E-1,9.873687744E0
1.823040136E1,3.567360640E-1,-4.453215301E-1,9.832986832E0
1.824236425E1,3.232172430E-1,-3.998316824E-1,9.816226959E0
1.825237402E1,3.184288144E-1,-4.261679053E-1,9.809044838E0
1.826433691E1,3.280056417E-1,-4.189853072E-1,9.844957352E0
1.827629980E1,3.256114423E-1,-4.381389022E-1,9.873687744E0
1.828630957E1,3.375824392E-1,-4.501099288E-1,9.890447617E0
1.829824194E1,3.758896589E-1,-4.477157295E-1,9.890447617E0
1.830825170E1,3.950432837E-1,-4.357447028E-1,9.866505623E0
1.832018408E1,3.758896589E-1,-4.237737060E-1,9.892841339E0
1.833214697E1,3.639186621E-1,-4.548983276E-1,9.885659218E0
1.834215673E1,3.303998411E-1,-4.860229492E-1,9.921571732E0
1.835408911E1,3.208230138E-1,-4.812345505E-1,9.890447617E0
1.836602148E1,3.375824392E-1,-4.548983276E-1,9.835380554E0
1.837603125E1,3.040636182E-1,-4.525041282E-1,9.768342972E0
1.838796362E1,2.992752194E-1,-4.070142806E-1,9.813833237E0
1.839995703E1,3.471592367E-1,-3.974374831E-1,9.847352028E0
1.840996679E1,3.375824392E-1,-4.022258818E-1,9.835380554E0
1.842196020E1,3.471592367E-1,-4.453215301E-1,9.868899345E0
1.843395361E1,3.232172430E-1,-4.668693244E-1,9.866505623E0
1.844588598E1,3.687070608E-1,-4.525041282E-1,9.864110947E0
1.845778784E1,3.950432837E-1,-4.357447028E-1,9.842563629E0
1.846779760E1,3.663128614E-1,-4.118026793E-1,9.842563629E0
1.847976049E1,3.711012602E-1,-4.357447028E-1,9.849745750E0
1.848977026E1,3.711012602E-1,-4.213795066E-1,9.840168953E0
1.850170263E1,3.543418646E-1,-4.525041282E-1,9.868899345E0
1.851363501E1,3.543418646E-1,-4.429273009E-1,9.876082420E0
1.852367529E1,3.471592367E-1,-4.381389022E-1,9.837775230E0
1.853563818E1,3.327940404E-1,-4.453215301E-1,9.799467087E0
1.854763159E1,3.663128614E-1,-4.477157295E-1,9.797073364E0
1.855962500E1,3.926490843E-1,-4.237737060E-1,9.883264542E0
1.857161840E1,3.758896589E-1,-4.189853072E-1,9.873687744E0
1.858162817E1,3.615244627E-1,-4.213795066E-1,9.880870819E0
1.859359106E1,3.663128614E-1,-4.094084799E-1,9.900024414E0
1.860555395E1,3.543418646E-1,-4.141969085E-1,9.866505623E0
1.861754736E1,3.543418646E-1,-4.046200812E-1,9.821015358E0
1.862951025E1,3.734954596E-1,-4.094084799E-1,9.859322548E0
1.864150366E1,3.447650373E-1,-4.094084799E-1,9.849745750E0
1.865346655E1,3.471592367E-1,-4.309563041E-1,9.844957352E0
1.866539892E1,3.543418646E-1,-4.405331016E-1,9.844957352E0
1.867540869E1,3.591302633E-1,-4.381389022E-1,9.828198433E0
1.868737158E1,3.591302633E-1,-4.525041282E-1,9.868899345E0
1.869738134E1,3.519476354E-1,-4.501099288E-1,9.837775230E0
1.870931372E1,3.375824392E-1,-4.357447028E-1,9.854534149E0
1.872124609E1,3.399766386E-1,-4.189853072E-1,9.878476143E0
1.873125586E1,3.280056417E-1,-4.405331016E-1,9.900024414E0
1.874126562E1,3.351882398E-1,-4.477157295E-1,9.904812813E0
1.875316748E1,3.184288144E-1,-4.141969085E-1,9.888052940E0
1.876513037E1,3.232172430E-1,-3.998316824E-1,9.809044838E0
1.877514013E1,3.303998411E-1,-3.878606856E-1,9.837775230E0
1.878514990E1,3.806780577E-1,-4.285621047E-1,9.871294022E0
1.879714331E1,3.591302633E-1,-4.501099288E-1,9.861717224E0
1.880715307E1,3.375824392E-1,-4.692635238E-1,9.859322548E0
1.881908545E1,3.399766386E-1,-4.764461517E-1,9.866505623E0
1.883107885E1,3.495534360E-1,-4.285621047E-1,9.823410034E0
1.884304174E1,3.471592367E-1,-4.094084799E-1,9.823410034E0
1.885494360E1,3.519476354E-1,-4.285621047E-1,9.835380554E0
1.886495336E1,3.543418646E-1,-4.429273009E-1,9.854534149E0
1.887688574E1,3.375824392E-1,-4.046200812E-1,9.876082420E0
1.888689550E1,3.423708379E-1,-4.213795066E-1,9.866505623E0
1.889690527E1,3.495534360E-1,-4.572925270E-1,9.854534149E0
1.890883764E1,3.615244627E-1,-4.501099288E-1,9.888052940E0
1.892080053E1,3.734954596E-1,-4.165911078E-1,9.880870819E0
1.893081030E1,3.711012602E-1,-4.237737060E-1,9.859322548E0
1.894277319E1,3.591302633E-1,-4.237737060E-1,9.823410034E0
1.895473608E1,3.495534360E-1,-4.237737060E-1,9.873687744E0
1.896474584E1,3.136404157E-1,-4.381389022E-1,9.816226959E0
1.897475561E1,3.375824392E-1,-4.141969085E-1,9.840168953E0
1.898674902E1,3.687070608E-1,-3.806780577E-1,9.864110947E0
1.899874243E1,3.639186621E-1,-3.926490843E-1,9.854534149E0
1.901073584E1,3.423708379E-1,-4.237737060E-1,9.871294022E0
1.902269873E1,3.711012602E-1,-4.453215301E-1,9.864110947E0
1.903270849E1,3.327940404E-1,-4.501099288E-1,9.859322548E0
1.904467138E1,3.303998411E-1,-4.261679053E-1,9.859322548E0
1.905663427E1,3.112462163E-1,-4.548983276E-1,9.854534149E0
1.906664404E1,3.184288144E-1,-4.453215301E-1,9.818621635E0
1.907665380E1,3.232172430E-1,-4.453215301E-1,9.828198433E0
1.908666357E1,3.447650373E-1,-4.165911078E-1,9.854534149E0
1.909862646E1,3.447650373E-1,-3.926490843E-1,9.868899345E0
1.910863623E1,3.423708379E-1,-3.902548850E-1,9.902418137E0
1.912062964E1,3.687070608E-1,-3.902548850E-1,9.895236015E0
1.913259252E1,3.734954596E-1,-4.118026793E-1,9.866505623E0
1.914455542E1,3.423708379E-1,-4.237737060E-1,9.871294022E0
1.915654882E1,3.184288144E-1,-4.261679053E-1,9.861717224E0
1.916845068E1,2.920926213E-1,-4.453215301E-1,9.828198433E0
1.918041357E1,3.280056417E-1,-3.806780577E-1,9.830592155E0
1.919042334E1,3.423708379E-1,-3.806780577E-1,9.830592155E0
1.920235571E1,3.399766386E-1,-3.687070608E-1,9.832986832E0
1.921236547E1,3.591302633E-1,-3.711012602E-1,9.852140427E0
1.922432836E1,4.237737060E-1,-4.189853072E-1,9.883264542E0
1.923626074E1,4.309563041E-1,-4.453215301E-1,9.919178009E0
1.924825415E1,3.567360640E-1,-4.668693244E-1,9.914389610E0
1.926021704E1,3.112462163E-1,-4.333505034E-1,9.895236015E0
1.927022680E1,3.160346150E-1,-4.285621047E-1,9.890447617E0
1.928215918E1,2.753331959E-1,-3.854664862E-1,9.849745750E0
1.929409155E1,2.705447972E-1,-3.950432837E-1,9.804255486E0
1.930602392E1,3.136404157E-1,-3.591302633E-1,9.768342972E0
1.931795630E1,3.184288144E-1,-3.687070608E-1,9.811438560E0
1.932796606E1,3.734954596E-1,-3.878606856E-1,9.852140427E0
1.933992895E1,3.878606856E-1,-4.118026793E-1,9.852140427E0
1.934993872E1,3.782838583E-1,-4.261679053E-1,9.866505623E0
1.936190161E1,3.711012602E-1,-4.213795066E-1,9.868899345E0
1.937389502E1,3.758896589E-1,-3.830722570E-1,9.866505623E0
1.938390478E1,3.830722570E-1,-3.639186621E-1,9.878476143E0
1.939586767E1,3.423708379E-1,-3.687070608E-1,9.823410034E0
1.940587744E1,3.519476354E-1,-3.639186621E-1,9.806650162E0
1.941787084E1,3.447650373E-1,-4.022258818E-1,9.818621635E0
1.942788061E1,3.543418646E-1,-3.830722570E-1,9.849745750E0
1.943984350E1,3.519476354E-1,-4.046200812E-1,9.859322548E0
1.944985327E1,3.280056417E-1,-4.309563041E-1,9.873687744E0
1.945986303E1,3.734954596E-1,-4.189853072E-1,9.940725327E0
1.947182592E1,3.567360640E-1,-3.806780577E-1,9.883264542E0
1.948381933E1,3.711012602E-1,-3.519476354E-1,9.878476143E0
1.949575170E1,3.902548850E-1,-3.351882398E-1,9.883264542E0
1.950774511E1,3.687070608E-1,-3.208230138E-1,9.842563629E0
1.951970800E1,3.687070608E-1,-3.136404157E-1,9.835380554E0
1.953170141E1,3.806780577E-1,-3.351882398E-1,9.849745750E0
1.954366430E1,3.639186621E-1,-3.878606856E-1,9.856928825E0
1.955562719E1,3.399766386E-1,-3.974374831E-1,9.852140427E0
1.956762060E1,3.303998411E-1,-3.854664862E-1,9.864110947E0
1.957958349E1,3.615244627E-1,-3.471592367E-1,9.871294022E0
1.958959326E1,3.782838583E-1,-3.543418646E-1,9.871294022E0
1.960155615E1,3.782838583E-1,-3.447650373E-1,9.885659218E0
1.961156591E1,3.854664862E-1,-3.327940404E-1,9.892841339E0
1.962349829E1,3.711012602E-1,-3.280056417E-1,9.823410034E0
1.963546118E1,3.663128614E-1,-2.992752194E-1,9.890447617E0
1.964547094E1,3.040636182E-1,-3.160346150E-1,9.864110947E0
1.965740332E1,3.088520169E-1,-3.327940404E-1,9.830592155E0
1.966741308E1,3.351882398E-1,-3.447650373E-1,9.880870819E0
1.967940649E1,3.280056417E-1,-3.615244627E-1,9.866505623E0
1.969136938E1,3.399766386E-1,-3.232172430E-1,9.861717224E0
1.970333227E1,3.543418646E-1,-3.399766386E-1,9.856928825E0
1.971334204E1,3.782838583E-1,-3.232172430E-1,9.904812813E0
1.972524389E1,3.806780577E-1,-3.303998411E-1,9.885659218E0
1.973525366E1,3.687070608E-1,-3.351882398E-1,9.864110947E0
1.974724707E1,3.758896589E-1,-3.184288144E-1,9.840168953E0
1.975924047E1,3.830722570E-1,-3.375824392E-1,9.866505623E0
1.977123388E1,3.854664862E-1,-3.232172430E-1,9.825803757E0
1.978319677E1,3.926490843E-1,-3.112462163E-1,9.828198433E0
1.979512915E1,3.806780577E-1,-2.920926213E-1,9.832986832E0
1.980712255E1,3.950432837E-1,-2.992752194E-1,9.823410034E0
1.981908545E1,3.782838583E-1,-3.016694188E-1,9.847352028E0
1.982909521E1,3.711012602E-1,-3.471592367E-1,9.878476143E0
1.984105810E1,3.758896589E-1,-3.303998411E-1,9.888052940E0
1.985302099E1,3.519476354E-1,-3.184288144E-1,9.885659218E0
1.986501440E1,3.639186621E-1,-3.040636182E-1,9.868899345E0
1.987700781E1,3.806780577E-1,-2.968810201E-1,9.888052940E0
1.988900122E1,3.974374831E-1,-2.609679997E-1,9.852140427E0
1.989901098E1,3.830722570E-1,-2.801215947E-1,9.852140427E0
1.991100439E1,3.734954596E-1,-2.896983922E-1,9.854534149E0
1.992296728E1,3.639186621E-1,-2.801215947E-1,9.816226959E0
1.993493017E1,3.639186621E-1,-2.753331959E-1,9.849745750E0
1.994689306E1,3.567360640E-1,-2.896983922E-1,9.830592155E0
1.995879492E1,3.591302633E-1,-2.705447972E-1,9.801861763E0
1.997069677E1,3.854664862E-1,-2.705447972E-1,9.878476143E0
1.998265966E1,3.423708379E-1,-2.513911724E-1,9.888052940E0
1.999266943E1,3.830722570E-1,-2.298433632E-1,9.885659218E0
2.000466284E1,4.022258818E-1,-2.777273953E-1,9.974244118E0
2.001467260E1,3.256114423E-1,-3.112462163E-1,9.885659218E0
2.002660498E1,3.902548850E-1,-3.208230138E-1,9.868899345E0
2.003856787E1,3.950432837E-1,-2.633621991E-1,9.837775230E0
2.004857763E1,3.998316824E-1,-2.130839527E-1,9.804255486E0
2.006057104E1,3.950432837E-1,-2.322375625E-1,9.789890289E0
2.007253393E1,3.902548850E-1,-2.250549644E-1,9.797073364E0
2.008254370E1,3.806780577E-1,-2.394201756E-1,9.830592155E0
2.009255346E1,3.782838583E-1,-2.466027737E-1,9.883264542E0
2.010454687E1,4.022258818E-1,-2.298433632E-1,9.883264542E0
2.011654028E1,3.830722570E-1,-2.226607651E-1,9.916783333E0
2.012655005E1,3.806780577E-1,-2.011129409E-1,9.909601212E0
2.013854345E1,3.830722570E-1,-2.011129409E-1,9.900024414E0
2.014855322E1,4.070142806E-1,-1.987187415E-1,9.895236015E0
2.016051611E1,4.141969085E-1,-2.059013397E-1,9.830592155E0
2.017052588E1,4.189853072E-1,-2.178723514E-1,9.811438560E0
2.018245825E1,4.141969085E-1,-2.202665508E-1,9.813833237E0
2.019439062E1,4.237737060E-1,-2.489969730E-1,9.868899345E0
2.020440039E1,3.926490843E-1,-2.729389966E-1,9.861717224E0
2.021636328E1,4.094084799E-1,-2.489969730E-1,9.895236015E0
2.022829565E1,3.639186621E-1,-2.537853718E-1,9.828198433E0
2.024028906E1,3.519476354E-1,-2.154781520E-1,9.828198433E0
2.025029882E1,3.615244627E-1,-1.963245422E-1,9.859322548E0
2.026229223E1,4.141969085E-1,-1.699883193E-1,9.878476143E0
2.027425512E1,4.429273009E-1,-1.628057212E-1,9.892841339E0
2.028618750E1,4.094084799E-1,-1.891419291E-1,9.888052940E0
2.029815039E1,4.022258818E-1,-2.059013397E-1,9.864110947E0
2.030816015E1,3.974374831E-1,-2.035071403E-1,9.832986832E0
2.032015356E1,3.734954596E-1,-2.154781520E-1,9.861717224E0
2.033211645E1,3.854664862E-1,-1.843535304E-1,9.832986832E0
2.034410986E1,4.094084799E-1,-1.604115069E-1,9.876082420E0
2.035610327E1,3.878606856E-1,-1.436520964E-1,9.775525093E0
2.036800512E1,4.046200812E-1,-1.197100878E-1,9.787496567E0
2.037996801E1,4.022258818E-1,-1.268926859E-1,9.821015358E0
2.039193090E1,4.357447028E-1,-1.580173075E-1,9.900024414E0
2.040194067E1,4.525041282E-1,-1.819593310E-1,9.945513725E0
2.041390356E1,4.429273009E-1,-1.867477298E-1,9.971850395E0
2.042391333E1,4.070142806E-1,-1.723825186E-1,9.923966408E0
2.043584570E1,3.950432837E-1,-1.628057212E-1,9.821015358E0
2.044780859E1,3.902548850E-1,-1.604115069E-1,9.818621635E0
2.045781836E1,4.094084799E-1,-1.053448766E-1,9.837775230E0
2.046975073E1,4.046200812E-1,-6.943184882E-2,9.797073364E0
2.048171362E1,3.830722570E-1,-1.197100878E-1,9.832986832E0
2.049172338E1,3.615244627E-1,-1.244984865E-1,9.821015358E0
2.050173315E1,3.998316824E-1,-1.316810995E-1,9.873687744E0
2.051372656E1,4.118026793E-1,-1.053448766E-1,9.890447617E0
2.052568945E1,4.141969085E-1,-1.077390760E-1,9.892841339E0
2.053765234E1,4.261679053E-1,-1.125274822E-1,9.880870819E0
2.054766210E1,3.854664862E-1,-1.292868853E-1,9.871294022E0
2.055767187E1,4.094084799E-1,-1.340752989E-1,9.873687744E0
2.056966528E1,4.046200812E-1,-1.268926859E-1,9.852140427E0
2.058162817E1,3.830722570E-1,-1.508347094E-1,9.864110947E0
2.059362158E1,3.687070608E-1,-1.221042871E-1,9.854534149E0
2.060561499E1,4.046200812E-1,-1.029506698E-1,9.856928825E0
2.061757788E1,3.806780577E-1,-1.029506698E-1,9.878476143E0
2.062758764E1,3.758896589E-1,-1.197100878E-1,9.866505623E0
2.063952002E1,3.711012602E-1,-1.364694983E-1,9.835380554E0
2.065151342E1,3.854664862E-1,-1.292868853E-1,9.861717224E0
2.066152319E1,3.806780577E-1,-1.221042871E-1,9.856928825E0
2.067348608E1,3.974374831E-1,-1.053448766E-1,9.878476143E0
2.068349585E1,4.189853072E-1,-1.053448766E-1,9.878476143E0
2.069350561E1,4.572925270E-1,-9.097966552E-2,9.876082420E0
2.070351538E1,4.213795066E-1,-1.197100878E-1,9.907206535E0
2.071547827E1,3.950432837E-1,-1.388636976E-1,9.868899345E0
2.072548803E1,3.663128614E-1,-1.436520964E-1,9.854534149E0
2.073745092E1,3.950432837E-1,-1.029506698E-1,9.825803757E0
2.074938330E1,3.998316824E-1,-6.703764945E-2,9.794678688E0
2.075939306E1,3.950432837E-1,-8.140286058E-2,9.789890289E0
2.077135595E1,4.046200812E-1,-1.029506698E-1,9.823410034E0
2.078136572E1,4.118026793E-1,-1.149216816E-1,9.864110947E0
2.079329809E1,4.046200812E-1,-1.316810995E-1,9.883264542E0
2.080526098E1,3.926490843E-1,-1.244984865E-1,9.883264542E0
2.081527075E1,4.046200812E-1,-1.149216816E-1,9.890447617E0
2.082528051E1,4.022258818E-1,-9.576806426E-2,9.878476143E0
2.083724340E1,4.046200812E-1,-1.005564705E-1,9.895236015E0
2.084725317E1,3.854664862E-1,-1.053448766E-1,9.878476143E0
2.085924658E1,3.663128614E-1,-1.005564705E-1,9.840168953E0
2.087117895E1,3.902548850E-1,-6.464344263E-2,9.821015358E0
2.088118872E1,4.141969085E-1,-5.506663769E-2,9.806650162E0
2.089315161E1,3.902548850E-1,-6.943184882E-2,9.832986832E0
2.090511450E1,3.615244627E-1,-1.221042871E-1,9.871294022E0
2.091512426E1,4.094084799E-1,-1.460463107E-1,9.907206535E0
2.092513403E1,3.998316824E-1,-1.388636976E-1,9.890447617E0
2.093709692E1,4.070142806E-1,-9.576806426E-2,9.928754807E0
2.094710668E1,4.141969085E-1,-9.576806426E-2,9.880870819E0
2.095906958E1,3.854664862E-1,-7.422025502E-2,9.878476143E0
2.097106298E1,3.902548850E-1,-6.224924326E-2,9.861717224E0
2.098305639E1,4.070142806E-1,-6.943184882E-2,9.823410034E0
2.099504980E1,3.734954596E-1,-8.858546615E-2,9.842563629E0
2.100701269E1,3.591302633E-1,-9.816227108E-2,9.832986832E0
2.101897558E1,4.046200812E-1,-7.900865376E-2,9.868899345E0
2.102898535E1,3.926490843E-1,-1.125274822E-1,9.888052940E0
2.104094824E1,4.070142806E-1,-9.576806426E-2,9.861717224E0
2.105095800E1,4.189853072E-1,-5.985504389E-2,9.825803757E0
2.106096777E1,4.213795066E-1,-7.422025502E-2,9.856928825E0
2.107293066E1,3.998316824E-1,-7.182604820E-2,9.900024414E0
2.108489355E1,3.998316824E-1,-7.900865376E-2,9.902418137E0
2.109490332E1,3.711012602E-1,-1.077390760E-1,9.897629738E0
2.110680517E1,3.758896589E-1,-1.005564705E-1,9.880870819E0
2.111879858E1,3.663128614E-1,-7.661445439E-2,9.828198433E0
2.113079199E1,3.687070608E-1,-7.422025502E-2,9.799467087E0
2.114080175E1,4.165911078E-1,-7.422025502E-2,9.809044838E0
2.115270361E1,4.357447028E-1,-7.900865376E-2,9.854534149E0
2.116460546E1,4.118026793E-1,-8.379705995E-2,9.890447617E0
2.117461523E1,4.333505034E-1,-1.125274822E-1,9.907206535E0
2.118654760E1,4.453215301E-1,-1.125274822E-1,9.926360130E0
2.119854101E1,4.141969085E-1,-1.101332754E-1,9.888052940E0
2.121053442E1,3.782838583E-1,-7.900865376E-2,9.835380554E0
2.122054418E1,3.806780577E-1,-5.985504389E-2,9.787496567E0
2.123250708E1,3.711012602E-1,-5.506663769E-2,9.794678688E0
2.124440893E1,3.974374831E-1,-8.140286058E-2,9.837775230E0
2.125640234E1,4.046200812E-1,-8.140286058E-2,9.799467087E0
2.126836523E1,4.141969085E-1,-9.097966552E-2,9.866505623E0
2.128026709E1,4.141969085E-1,-9.816227108E-2,9.883264542E0
2.129027685E1,4.548983276E-1,-1.125274822E-1,9.916783333E0
2.130028662E1,4.405331016E-1,-1.029506698E-1,9.935936928E0
2.131221899E1,4.261679053E-1,-9.337386489E-2,9.921571732E0
2.132222876E1,3.854664862E-1,-6.943184882E-2,9.904812813E0
2.133223852E1,4.070142806E-1,-6.943184882E-2,9.888052940E0
2.134423193E1,3.950432837E-1,-6.943184882E-2,9.823410034E0
2.135622534E1,3.639186621E-1,-4.788403213E-2,9.782708168E0
2.136812719E1,3.806780577E-1,-7.182604820E-2,9.773131371E0
2.138012060E1,3.591302633E-1,-6.943184882E-2,9.794678688E0
2.139205297E1,4.070142806E-1,-8.140286058E-2,9.840168953E0
2.140206274E1,4.285621047E-1,-6.943184882E-2,9.902418137E0
2.141402563E1,4.668693244E-1,-6.943184882E-2,9.952696800E0
2.142403540E1,4.357447028E-1,-9.816227108E-2,9.926360130E0
2.143602880E1,4.333505034E-1,-6.703764945E-2,9.931148529E0
2.144802221E1,4.237737060E-1,-9.576806426E-2,9.885659218E0
2.145998510E1,3.974374831E-1,-5.267243832E-2,9.830592155E0
2.147194799E1,3.830722570E-1,-6.464344263E-2,9.792284966E0
2.148394140E1,3.758896589E-1,-7.661445439E-2,9.770736694E0
2.149590429E1,3.854664862E-1,-8.858546615E-2,9.797073364E0
2.150591406E1,3.950432837E-1,-7.182604820E-2,9.821015358E0
2.151790747E1,4.189853072E-1,-5.027823523E-2,9.868899345E0
2.152791723E1,4.213795066E-1,-4.070143029E-2,9.871294022E0
2.153991064E1,4.213795066E-1,-6.943184882E-2,9.916783333E0
2.155187353E1,4.070142806E-1,-5.746084079E-2,9.952696800E0
2.156188330E1,4.261679053E-1,-8.858546615E-2,9.931148529E0
2.157381567E1,4.213795066E-1,-9.097966552E-2,9.900024414E0
2.158382544E1,3.782838583E-1,-9.337386489E-2,9.835380554E0
2.159581884E1,3.567360640E-1,-8.140286058E-2,9.799467087E0
2.160772070E1,3.687070608E-1,-6.943184882E-2,9.821015358E0
2.161962255E1,3.878606856E-1,-6.224924326E-2,9.770736694E0
2.163158545E1,3.806780577E-1,-6.464344263E-2,9.832986832E0
2.164159521E1,4.285621047E-1,-5.506663769E-2,9.940725327E0
2.165355810E1,4.333505034E-1,-8.140286058E-2,9.907206535E0
2.166356787E1,4.189853072E-1,-8.619125932E-2,9.904812813E0
2.167556128E1,4.070142806E-1,-8.858546615E-2,9.892841339E0
2.168755468E1,3.950432837E-1,-6.943184882E-2,9.849745750E0
2.169951757E1,3.854664862E-1,-3.591302410E-2,9.816226959E0
2.171144995E1,4.046200812E-1,-5.985504389E-2,9.813833237E0
2.172341284E1,4.046200812E-1,-5.746084079E-2,9.830592155E0
2.173540625E1,4.118026793E-1,-5.506663769E-2,9.907206535E0
2.174541601E1,4.429273009E-1,-8.140286058E-2,9.938331604E0
2.175734838E1,4.046200812E-1,-8.379705995E-2,9.904812813E0
2.176735815E1,3.854664862E-1,-1.125274822E-1,9.876082420E0
2.177932104E1,4.118026793E-1,-6.703764945E-2,9.856928825E0
2.179128393E1,4.070142806E-1,-5.985504389E-2,9.816226959E0
2.180321630E1,4.022258818E-1,-3.591302410E-2,9.782708168E0
2.181514868E1,3.998316824E-1,-4.309562966E-2,9.785101891E0
2.182711157E1,4.333505034E-1,-6.703764945E-2,9.842563629E0
2.183910498E1,4.213795066E-1,-7.661445439E-2,9.897629738E0
2.185106787E1,3.926490843E-1,-8.140286058E-2,9.907206535E0
2.186107763E1,4.022258818E-1,-7.900865376E-2,9.904812813E0
2.187304052E1,4.070142806E-1,-4.788403213E-2,9.938331604E0
2.188305029E1,4.213795066E-1,-4.070143029E-2,9.895236015E0
2.189498266E1,3.974374831E-1,-7.900865376E-2,9.859322548E0
2.190499243E1,4.141969085E-1,-5.027823523E-2,9.864110947E0
2.191698584E1,4.070142806E-1,-5.027823523E-2,9.818621635E0
2.192897924E1,4.046200812E-1,-6.464344263E-2,9.811438560E0
2.194097265E1,4.094084799E-1,-7.422025502E-2,9.821015358E0
2.195296606E1,4.022258818E-1,-9.576806426E-2,9.789890289E0
2.196495947E1,3.974374831E-1,-8.379705995E-2,9.840168953E0
2.197496923E1,4.141969085E-1,-6.224924326E-2,9.885659218E0
2.198696264E1,4.165911078E-1,-5.985504389E-2,9.895236015E0
2.199895605E1,3.926490843E-1,-7.900865376E-2,9.931148529E0
2.201088842E1,4.094084799E-1,-5.746084079E-2,9.892841339E0
2.202282080E1,4.285621047E-1,-4.788403213E-2,9.919178009E0
2.203475317E1,4.141969085E-1,-7.182604820E-2,9.868899345E0
2.204476294E1,3.782838583E-1,-5.027823523E-2,9.842563629E0
2.205477270E1,3.734954596E-1,-5.027823523E-2,9.854534149E0
2.206676611E1,3.950432837E-1,-6.464344263E-2,9.794678688E0
2.207875952E1,3.950432837E-1,-4.788403213E-2,9.813833237E0
2.209072241E1,4.141969085E-1,-4.309562966E-2,9.854534149E0
2.210271582E1,4.070142806E-1,-6.224924326E-2,9.897629738E0
2.211470922E1,4.453215301E-1,-8.140286058E-2,9.885659218E0
2.212667212E1,4.309563041E-1,-1.101332754E-1,9.945513725E0
2.213863501E1,4.237737060E-1,-7.422025502E-2,9.938331604E0
2.215062841E1,4.094084799E-1,-6.943184882E-2,9.890447617E0
2.216262182E1,3.591302633E-1,-8.140286058E-2,9.828198433E0
2.217458471E1,3.567360640E-1,-3.351882473E-2,9.763554573E0
2.218654760E1,3.711012602E-1,9.337386489E-2,9.813833237E0
2.219844946E1,4.213795066E-1,-8.858546615E-2,9.672574997E0
2.221035131E1,3.280056417E-1,-5.746084079E-2,9.842563629E0
2.222036108E1,4.381389022E-1,-3.351882473E-2,9.974244118E0
2.223232397E1,4.357447028E-1,-6.224924326E-2,9.993397713E0
2.224233374E1,3.902548850E-1,-7.900865376E-2,9.952696800E0
2.225429663E1,4.309563041E-1,-8.858546615E-2,9.938331604E0
2.226622900E1,3.950432837E-1,-4.309562966E-2,9.847352028E0
2.227822241E1,3.950432837E-1,-3.591302410E-2,9.768342972E0
2.229018530E1,3.758896589E-1,-9.576806799E-3,9.761159897E0
2.230019506E1,3.902548850E-1,9.576806799E-3,9.809044838E0
2.231218847E1,4.022258818E-1,-1.197100803E-2,9.801861763E0
2.232409033E1,4.165911078E-1,-4.309562966E-2,9.900024414E0
2.233608374E1,3.758896589E-1,-6.943184882E-2,9.890447617E0
2.234609350E1,3.711012602E-1,-9.337386489E-2,9.859322548E0
2.235802588E1,3.998316824E-1,-1.436521020E-2,9.902418137E0
2.236992773E1,4.237737060E-1,-2.394201607E-2,9.885659218E0
2.237993750E1,4.525041282E-1,-5.985504389E-2,9.888052940E0
2.239190039E1,4.189853072E-1,-4.309562966E-2,9.873687744E0
2.240389380E1,3.830722570E-1,-5.985504389E-2,9.830592155E0
2.241585668E1,3.687070608E-1,-4.309562966E-2,9.775525093E0
2.242781958E1,3.567360640E-1,-7.182605099E-3,9.825803757E0
2.243981298E1,3.878606856E-1,-2.154781483E-2,9.854534149E0
2.244982275E1,3.758896589E-1,-4.548983276E-2,9.866505623E0
2.246181616E1,3.902548850E-1,-4.070143029E-2,9.892841339E0
2.247380957E1,4.141969085E-1,-1.915361360E-2,9.892841339E0
2.248580297E1,3.926490843E-1,-7.182605099E-3,9.933543205E0
2.249776586E1,4.022258818E-1,-1.675941236E-2,9.897629738E0
2.250975927E1,3.950432837E-1,-2.154781483E-2,9.868899345E0
2.252172216E1,3.830722570E-1,-4.548983276E-2,9.777919769E0
2.253365454E1,3.591302633E-1,-5.985504389E-2,9.801861763E0
2.254366430E1,3.782838583E-1,-5.027823523E-2,9.792284966E0
2.255367407E1,3.758896589E-1,-4.548983276E-2,9.859322548E0
2.256368383E1,4.070142806E-1,-4.548983276E-2,9.871294022E0
2.257564672E1,4.022258818E-1,-2.873042040E-2,9.909601212E0
2.258757910E1,3.830722570E-1,-2.394201607E-2,9.902418137E0
2.259948095E1,3.854664862E-1,-3.591302410E-2,9.900024414E0
2.261144384E1,4.022258818E-1,-4.548983276E-2,9.880870819E0
2.262337622E1,4.022258818E-1,-3.830722719E-2,9.885659218E0
2.263527807E1,3.974374831E-1,-4.788403399E-3,9.847352028E0
2.264721045E1,3.950432837E-1,-4.788403399E-3,9.799467087E0
2.265914282E1,3.758896589E-1,-2.394201607E-2,9.821015358E0
2.267113623E1,3.878606856E-1,-3.112462163E-2,9.828198433E0
2.268114599E1,3.830722570E-1,-5.027823523E-2,9.842563629E0
2.269307836E1,3.974374831E-1,-4.788403213E-2,9.895236015E0
2.270501074E1,4.333505034E-1,-3.591302410E-2,9.892841339E0
2.271697363E1,4.094084799E-1,-3.591302410E-2,9.921571732E0
2.272698339E1,4.165911078E-1,-5.985504389E-2,9.911994934E0
2.273894628E1,4.094084799E-1,-3.591302410E-2,9.897629738E0
2.275084814E1,4.046200812E-1,-5.267243832E-2,9.871294022E0
2.276278051E1,3.902548850E-1,-1.675941236E-2,9.832986832E0
2.277279028E1,3.543418646E-1,-2.394201607E-2,9.782708168E0
2.278478369E1,3.830722570E-1,-1.915361360E-2,9.751583099E0
2.279486204E1,3.878606856E-1,-1.675941236E-2,9.794678688E0
2.280679441E1,4.070142806E-1,-3.112462163E-2,9.816226959E0
2.281878782E1,4.213795066E-1,-5.985504389E-2,9.897629738E0
2.283078123E1,4.309563041E-1,-3.830722719E-2,9.947908401E0
2.284271360E1,4.429273009E-1,-4.548983276E-2,1.000297451E1
2.285467649E1,3.902548850E-1,-4.788403213E-2,9.892841339E0
2.286663938E1,3.495534360E-1,-3.830722719E-2,9.880870819E0
2.287664915E1,3.447650373E-1,-5.267243832E-2,9.828198433E0
2.288855100E1,3.758896589E-1,-5.027823523E-2,9.794678688E0
2.290051389E1,3.782838583E-1,-1.915361360E-2,9.816226959E0
2.291250730E1,3.758896589E-1,4.788403399E-3,9.792284966E0
2.292443967E1,3.950432837E-1,-9.576806799E-3,9.809044838E0
2.293640256E1,4.429273009E-1,-3.830722719E-2,9.868899345E0
2.294839597E1,4.237737060E-1,-5.746084079E-2,9.890447617E0
2.296038938E1,4.094084799E-1,-4.788403213E-2,9.964667320E0
2.297235227E1,4.189853072E-1,-2.154781483E-2,9.931148529E0
2.298236204E1,3.878606856E-1,-3.351882473E-2,9.904812813E0
2.299429441E1,3.663128614E-1,-4.548983276E-2,9.876082420E0
2.300430418E1,3.950432837E-1,-4.070143029E-2,9.880870819E0
2.301620603E1,4.070142806E-1,-4.548983276E-2,9.823410034E0
2.302621580E1,4.141969085E-1,-4.788403213E-2,9.811438560E0
2.303622556E1,3.926490843E-1,-7.182604820E-2,9.811438560E0
2.304821897E1,3.806780577E-1,-6.943184882E-2,9.847352028E0
2.306021238E1,4.046200812E-1,-6.464344263E-2,9.902418137E0
2.307211423E1,4.070142806E-1,-6.224924326E-2,9.904812813E0
2.308404661E1,3.711012602E-1,-5.985504389E-2,9.883264542E0
2.309405637E1,3.926490843E-1,-2.873042040E-2,9.885659218E0
2.310595823E1,3.926490843E-1,-1.675941236E-2,9.856928825E0
2.311795164E1,3.734954596E-1,-2.394201607E-2,9.844957352E0
2.312796140E1,3.974374831E-1,-3.351882473E-2,9.854534149E0
2.313995481E1,3.854664862E-1,-5.506663769E-2,9.840168953E0
2.315194822E1,4.237737060E-1,-7.900865376E-2,9.828198433E0
2.316394163E1,4.118026793E-1,-8.140286058E-2,9.847352028E0
2.317590452E1,4.189853072E-1,-9.337386489E-2,9.861717224E0
