"Time (s)","Linear Acceleration x (m/s^2)","Linear Acceleration y (m/s^2)","Linear Acceleration z (m/s^2)"
3.539840100E-2,1.570288837E-2,3.340813890E-2,6.060218811E-2
5.135909500E-2,1.462938637E-2,1.103585213E-2,7.032203674E-2
6.728927100E-2,2.143093944E-2,1.821732521E-2,3.201961517E-2
8.321944600E-2,1.626149565E-2,-5.725800991E-3,1.014547348E-1
9.918014000E-2,2.066741139E-2,1.582089812E-2,7.033538818E-2
1.151713510E-1,1.132711768E-3,3.848746419E-3,8.230972290E-2
1.310710090E-1,1.379623264E-2,-1.144982874E-2,3.438949585E-3
1.470011850E-1,-1.287231594E-2,-8.913636208E-3,1.518821716E-1
1.629923960E-1,1.083023846E-2,-1.595256105E-2,-6.359481812E-2
1.788920540E-1,-1.574435085E-2,-8.723571897E-3,1.494922638E-1
1.948527470E-1,5.422487855E-3,-1.336964220E-2,1.302719116E-2
2.108439580E-1,5.374416709E-3,-3.744751215E-3,1.111888885E-1
2.267436160E-1,-4.248850048E-3,-1.399897039E-3,9.203624725E-2
2.427653450E-1,7.530584931E-3,-1.317932457E-2,2.021121979E-2
2.587260380E-1,-1.901648939E-3,6.020963192E-3,1.159772873E-1
2.746256960E-1,2.791337669E-3,-2.740219980E-2,-4.682826996E-2
2.906169070E-1,-9.083516896E-3,3.489474952E-2,1.518898010E-1
3.065776010E-1,7.677704096E-3,1.344054937E-2,-1.091766357E-2
3.225688120E-1,-1.870569587E-2,1.114092022E-2,3.696727753E-2
3.385295050E-1,-7.167354226E-3,1.837243885E-2,4.176139832E-2
3.544291630E-1,-4.867501557E-3,4.196137190E-3,-3.729820251E-3
3.704508920E-1,-7.309459150E-3,9.127959609E-3,8.246040344E-2
3.863810680E-1,6.912112236E-3,-5.044840276E-3,-3.964233398E-2
4.023417610E-1,2.028658986E-3,2.368498594E-2,1.710491180E-1
4.183329720E-1,2.075649798E-3,-1.687076688E-2,-5.879783630E-2
4.342631480E-1,-1.238532364E-2,2.378880978E-3,1.231632233E-1
4.502543590E-1,-7.548503578E-3,1.205183566E-2,-1.809597015E-2
4.662150520E-1,-1.726862788E-2,-9.210318327E-3,-1.570224762E-2
4.822062630E-1,-1.497055590E-2,1.717440039E-2,1.016139984E-1
4.981669560E-1,-3.239899874E-3,-2.352659404E-2,-1.333236694E-3
5.140666140E-1,-5.775973201E-3,9.991027415E-3,1.902055740E-1
5.300883430E-1,1.332922280E-2,-1.146020740E-2,-8.034038544E-2
5.460185190E-1,-1.061142236E-2,-1.136661321E-2,8.246517181E-2
5.620097300E-1,-1.295859367E-2,7.931701839E-3,-2.288150787E-2
5.779704230E-1,-1.544789970E-2,3.286302090E-3,1.255588531E-1
5.939311160E-1,-5.823165178E-3,2.258324623E-2,6.330871582E-2
6.099528450E-1,2.511034906E-2,-1.264058053E-3,-6.122589111E-3
6.258830210E-1,-1.321598887E-3,-8.446030319E-3,7.528305054E-2
6.418437140E-1,-1.329191774E-2,-3.611147404E-3,4.894542694E-2
6.577738900E-1,-1.342188567E-2,2.046346664E-2,3.936958313E-2
6.736735480E-1,-1.108696312E-2,1.817975193E-2,3.936958313E-2
6.896952760E-1,-1.115535945E-2,8.616149426E-3,5.613040924E-2
7.056254520E-1,-3.925561905E-3,1.349962503E-2,1.542663574E-2
7.216166630E-1,-1.374041289E-2,-1.278974488E-2,5.852508545E-2
7.375773570E-1,-1.961514354E-3,-5.414947867E-3,8.248329163E-3
7.535075320E-1,-1.402812451E-2,-1.015540212E-2,3.458595276E-2
7.695292610E-1,-1.402778178E-2,-5.319356918E-3,2.979660034E-2
7.854594370E-1,-2.103939652E-3,-5.081363022E-3,3.458404541E-2
8.014506480E-1,-2.140048146E-2,1.172516495E-2,5.373954773E-2
8.174113410E-1,-1.177562028E-2,-2.543710172E-3,3.219032288E-2
8.333720340E-1,-4.687383771E-3,1.416694373E-2,3.937435150E-2
8.493632450E-1,-4.783228040E-3,2.195298672E-3,3.937530518E-2
8.652629030E-1,-2.578765154E-3,1.177150756E-2,3.698348999E-2
8.812235970E-1,-5.065947771E-4,3.348439932E-2,4.895782471E-2
8.971842900E-1,1.359051466E-2,2.634087950E-2,5.853748322E-2
9.131144660E-1,-3.190591931E-3,-1.964718103E-5,2.980804443E-2
9.291361940E-1,-8.093208075E-3,2.629616112E-2,2.980899811E-2
9.450663700E-1,-1.069404930E-2,2.371338755E-2,4.896640778E-2
9.610575810E-1,1.094818115E-3,-1.223116741E-2,4.657554626E-2
9.770182750E-1,-6.208211184E-3,1.181829721E-2,1.086235046E-3
9.929484500E-1,-1.123427600E-2,-4.989452660E-3,3.700351715E-2
1.008909144E0,1.018735766E-2,-5.002520978E-3,4.179286957E-2
1.024839319E0,-1.926749945E-3,-2.612024546E-4,4.418945312E-2
1.040861048E0,2.717271447E-3,7.113970816E-3,3.461265564E-2
1.056791224E0,-1.413901895E-2,1.229345798E-4,4.418945312E-2
1.072782435E0,-9.397953749E-3,2.707988024E-3,1.093864441E-3
1.088682093E0,-9.481459856E-3,2.682247758E-2,5.616092682E-2
1.104612269E0,-2.156764269E-3,-9.042195976E-3,1.545619965E-2
1.120603480E0,2.583727241E-3,7.812976837E-3,5.376338959E-2
1.136503138E0,-1.178168505E-2,1.504330337E-2,4.418659210E-2
1.152494349E0,-9.577244520E-3,3.071665764E-3,2.024650574E-2
1.168394007E0,-2.154819667E-2,-1.363919675E-2,2.503490448E-2
1.184324183E0,-7.135316730E-3,2.236850560E-2,2.982234955E-2
1.200345911E0,-1.684658974E-2,3.206390887E-2,2.264118195E-2
1.216245569E0,-1.443097740E-2,-4.090242088E-3,4.179573059E-2
1.232145228E0,-5.044281483E-3,7.833249867E-3,2.025032043E-2
1.248166956E0,-1.709660143E-2,-1.129058376E-2,2.503967285E-2
1.264097132E0,-3.869886696E-2,7.898122072E-3,4.658889771E-2
1.280088343E0,1.919493079E-3,3.043994308E-3,2.025318146E-2
1.296018519E0,-1.257274300E-2,7.866576314E-3,2.025508881E-2
1.312009730E0,-1.982122660E-2,7.657773793E-3,3.462219238E-2
1.327939905E0,-7.682546973E-3,1.003675163E-2,3.940868378E-2
1.343961634E0,-7.647082210E-3,2.982452512E-3,2.743721008E-2
1.359922327E0,8.905395865E-3,1.029942185E-2,3.701496124E-2
1.375883021E0,-2.705314010E-2,-8.722588420E-3,2.504348755E-2
1.391904749E0,-1.748893410E-2,8.510798216E-4,5.616855621E-2
1.407834925E0,-1.269061118E-2,1.749622077E-2,3.222751617E-2
1.423856653E0,-7.850974798E-3,5.559369922E-3,5.377388000E-2
1.439817347E0,-7.905542850E-3,1.286875457E-2,3.462028503E-2
1.455839075E0,-1.271121949E-2,-1.466549933E-3,3.701496124E-2
1.471799769E0,-1.529135555E-2,9.451359510E-4,1.546859741E-2
1.487790980E0,-1.777326316E-2,1.771961153E-2,3.222942352E-2
1.503751673E0,-8.036538959E-3,-1.382067800E-3,2.265071869E-2
1.519742884E0,-1.280537993E-2,1.303120703E-2,4.898548126E-2
1.535703577E0,-1.048730314E-2,-1.812576130E-2,1.068019867E-2
1.551664271E0,-1.291779429E-2,1.055032015E-3,5.377578735E-2
1.567685999E0,-2.005517483E-2,-1.347944140E-3,2.983283997E-2
1.583616175E0,-2.974877506E-2,-3.696136177E-3,3.222942352E-2
1.599576868E0,-2.018031478E-2,-3.603152931E-3,2.983379364E-2
1.615537562E0,1.252934337E-3,1.296550781E-2,1.547145844E-2
1.631437220E0,-6.006434560E-3,3.342874348E-3,3.462600708E-2
1.647428431E0,-5.703568459E-3,-6.183058023E-3,-4.917526245E-2
1.663328089E0,-1.089937985E-2,-1.250311732E-3,5.856800079E-2
1.679319300E0,-1.072515547E-2,2.510485053E-2,1.786518097E-2
1.695310511E0,1.277253032E-3,-9.858831763E-4,3.498077393E-3
1.711332239E0,-2.257515490E-2,1.585962623E-2,2.504348755E-2
1.727292933E0,-8.204132318E-3,3.023390472E-2,1.786136627E-2
1.743253626E0,-3.378510475E-3,-1.035111770E-2,1.067733765E-2
1.759244837E0,-2.248188853E-2,2.082161605E-2,2.264690399E-2
1.775205530E0,-8.179992437E-4,1.594407111E-2,3.222274780E-2
1.791105189E0,-1.999112964E-2,3.895066679E-3,2.264690399E-2
1.807126917E0,8.696347475E-3,6.416402757E-3,3.940582275E-2
1.823057093E0,-9.493380785E-4,1.625008881E-3,3.222370148E-2
1.839048304E0,-5.929097533E-3,-3.114871681E-3,3.701496124E-2
1.855008997E0,-1.296719164E-2,-3.065064549E-3,2.025222778E-2
1.870939173E0,-2.514947951E-2,-7.902108133E-3,3.222751617E-2
1.886930384E0,-8.794218302E-3,1.911699772E-3,5.617332458E-2
1.902891077E0,-8.694440126E-3,1.870481670E-2,-6.078720093E-3
1.918851771E0,-6.387516856E-3,1.867751777E-2,2.744293213E-2
1.934812464E0,-8.678957820E-3,-4.982501268E-4,2.504634857E-2
1.950773157E0,-1.824169606E-2,-4.264190793E-4,3.701782227E-2
1.966764368E0,-1.588525623E-2,9.117566049E-3,3.462314606E-2
1.982664026E0,3.335148096E-3,2.591829002E-2,1.786327362E-2
1.998655237E0,-2.079363167E-2,1.920819283E-3,2.983665466E-2
2.014615931E0,-1.369800419E-2,-2.908848226E-3,3.941440582E-2
2.030515589E0,-8.751496673E-3,2.342239767E-2,4.659652710E-2
2.046537318E0,-1.812323183E-2,-5.129784346E-3,3.496170044E-3
2.062436976E0,-8.826926351E-3,6.793454289E-3,2.744293213E-2
2.078428187E0,-8.943676949E-3,-2.645589411E-3,2.983665466E-2
2.094358362E0,-6.618499756E-3,1.421459764E-2,8.289337158E-3
2.110319056E0,-6.587058306E-3,-1.077875495E-4,5.377864838E-2
2.126340784E0,-1.840561628E-3,-8.936971426E-5,5.377864838E-2
2.142240443E0,-9.148240089E-3,7.051639259E-3,1.068496704E-2
2.158231653E0,4.416555166E-4,1.198071241E-2,3.702068329E-2
2.174161829E0,-2.031922340E-3,1.677376777E-2,6.814575195E-2
2.190122523E0,-3.065448254E-2,1.197596639E-2,1.307773590E-2
2.206113734E0,-1.620804518E-2,4.932522774E-3,4.898834229E-2
2.222013392E0,-1.618290693E-2,9.797818959E-3,2.744102478E-2
2.238004603E0,-3.757448494E-2,-4.541620612E-3,2.743816376E-2
2.253965296E0,3.197774291E-3,2.559579909E-3,3.701496124E-2
2.269925989E0,-1.355908066E-2,1.698845625E-2,3.496170044E-3
2.285825648E0,3.047719598E-3,1.226077974E-2,4.419803619E-2
2.301725306E0,-6.533890963E-3,7.468260825E-3,3.222751617E-2
2.317716517E0,4.584491253E-4,1.226041466E-2,3.701782227E-2
2.333677210E0,-2.111476660E-2,7.487826049E-3,8.288383484E-3
2.349637903E0,-9.150743484E-3,2.771005034E-3,3.462314606E-2
2.365629114E0,-3.068468720E-2,7.584229112E-3,4.180622101E-2
2.381559290E0,-1.643029600E-2,9.854346514E-3,4.659748077E-2
2.397550501E0,-9.159088135E-3,1.455941051E-2,8.289337158E-3
2.413480677E0,-1.151241362E-2,2.361238003E-4,4.659557343E-2
2.429471888E0,-1.376930624E-2,2.408529818E-2,4.419994354E-2
2.445402064E0,-2.328523993E-2,1.215268672E-2,1.786327362E-2
2.461332239E0,7.159858942E-4,9.753704071E-3,2.265071869E-2
2.477353968E0,-1.783207059E-3,5.074791610E-3,1.786327362E-2
2.493284144E0,-4.212751985E-3,7.594540715E-3,3.222846985E-2
2.509214319E0,-1.607998461E-2,1.954834908E-2,8.284568787E-3
2.525205530E0,3.120586276E-3,2.192673087E-2,8.284568787E-3
2.541105189E0,-1.120859385E-2,2.820193768E-3,4.419612885E-2
2.557065882E0,-1.361707598E-2,4.751458764E-4,3.701400757E-2
2.572996058E0,-4.011705518E-3,5.177177489E-3,3.461933136E-2
2.588987269E0,-1.379253715E-2,2.936504781E-3,5.616855621E-2
2.604917444E0,-1.876443624E-3,1.492682844E-2,2.983283997E-2
2.620939173E0,-6.659954786E-3,1.502344012E-2,4.898548126E-2
2.636899866E0,4.708468914E-4,5.453616381E-3,4.419803619E-2
2.652860560E0,-4.217922688E-3,1.747672260E-2,2.983188629E-2
2.668882288E0,-4.319563508E-3,1.518746465E-2,2.504348755E-2
2.684812464E0,5.397826433E-3,8.646547794E-4,1.307106018E-2
2.700834193E0,5.446717143E-3,1.053915173E-2,5.137634277E-2
2.716794886E0,1.145780087E-3,2.738504857E-2,5.879402161E-3
2.732786097E0,-8.660107851E-3,5.953833461E-3,5.881309509E-3
2.748777308E0,8.980929852E-4,1.535952836E-2,2.503585815E-2
2.764768519E0,-8.460789919E-3,1.291155070E-2,3.700542450E-2
2.780759730E0,3.634318709E-3,2.730158716E-2,2.263832092E-2
2.796720423E0,-2.266922593E-2,1.295642555E-2,3.700256348E-2
2.812681116E0,-1.308500022E-2,-8.592624217E-3,2.263736725E-2
2.828672327E0,-8.381173015E-3,5.839273334E-3,2.982044220E-2
2.844663538E0,-1.024469733E-3,5.897767842E-3,2.981758118E-2
2.860563196E0,-2.087906003E-3,1.580727100E-2,-6.118106842E-2
2.876554407E0,-1.694837958E-2,1.580856740E-2,5.614089966E-2
2.892484583E0,-2.179789543E-2,1.389041543E-3,1.783466339E-2
2.908445276E0,-9.952962399E-3,1.574087888E-2,-6.105422974E-3
2.924436487E0,-6.443113089E-4,-9.833127260E-4,3.220558167E-2
2.940336146E0,-5.612626672E-3,1.112485677E-2,3.220748901E-2
2.956327357E0,-6.028503180E-3,8.820593357E-3,3.460502625E-2
2.972288050E0,-1.576784998E-2,6.396479905E-3,2.263736725E-2
2.988187708E0,-1.104523242E-2,1.369553059E-2,1.784896851E-2
3.004209437E0,-2.055278420E-2,2.331414819E-2,4.657840729E-2
3.020109095E0,-8.940249681E-4,9.329937398E-3,1.064233780E-1
3.036100306E0,1.163788140E-2,1.656018943E-2,2.740764618E-2
3.052060999E0,-4.422858357E-3,2.612765133E-2,2.979278564E-2
3.067960657E0,-2.825995535E-2,6.852596998E-3,-8.515357971E-3
3.083982386E0,-1.354198903E-2,-5.222909153E-3,4.894161224E-2
3.099912562E0,-1.080870628E-3,-7.619518787E-3,4.654121399E-2
3.115903773E0,-8.091017604E-3,9.211793542E-3,2.259635925E-2
3.131864466E0,-1.516332477E-2,-7.543366402E-3,3.456592560E-2
3.147825159E0,1.622366905E-2,1.159787178E-2,2.498531342E-2
3.163846888E0,-3.140801191E-2,4.592411220E-3,2.019309998E-2
3.179807581E0,-1.428811997E-2,1.894532889E-2,5.131340027E-2
3.195798792E0,-2.176612616E-3,2.613966167E-2,5.849266052E-2
3.211728968E0,-9.223751724E-3,2.364333719E-2,2.976131439E-2
3.227628626E0,-9.436823428E-3,1.175733656E-2,2.258205414E-2
3.243650355E0,9.357407689E-3,-2.242922783E-4,5.371093750E-2
3.259580530E0,-2.625986934E-3,1.183007658E-2,3.695201874E-2
3.275541224E0,-2.170744538E-2,1.197845489E-2,2.018928528E-2
3.291501917E0,-7.362902164E-3,-3.857910633E-5,2.258491516E-2
3.307462610E0,-1.144707203E-4,1.428811252E-2,4.652595520E-2
3.323484339E0,1.649394631E-2,2.299167216E-3,1.710271835E-1
3.339414515E0,-1.696203649E-2,3.086791188E-2,5.131721497E-2
3.355436243E0,-8.321821690E-3,2.158085257E-2,8.232116699E-3
3.371366419E0,-9.317561984E-3,2.732045949E-3,2.500152588E-2
3.387327112E0,-1.219407469E-2,7.763221860E-3,2.979469299E-2
3.403287806E0,-1.251975447E-2,1.503230631E-2,4.655838013E-2
3.419187464E0,-2.193605900E-2,1.740808040E-2,2.021980286E-2
3.435148157E0,1.653069258E-2,3.427563608E-2,3.937053680E-2
3.451108851E0,-3.006231040E-2,3.303602338E-3,1.301670074E-2
3.467039026E0,-3.697773814E-2,3.733776510E-3,1.061630249E-2
3.483030237E0,-5.806878209E-3,1.128864288E-2,1.540184021E-2
3.498990931E0,-6.974637508E-4,1.851174980E-2,2.258014679E-2
3.514982142E0,-1.214576513E-2,1.129696518E-2,1.778507233E-2
3.530942835E0,-2.904192358E-2,9.281575680E-3,2.975463867E-2
3.546842493E0,4.646614194E-3,9.797014296E-3,7.284450531E-2
3.562864222E0,3.105223179E-3,7.640682161E-3,6.086158752E-2
3.578763880E0,-3.069439530E-2,5.100637674E-3,2.016448975E-2
3.594724573E0,-1.902237535E-2,1.948733628E-2,1.059150696E-2
3.610715784E0,-1.961967349E-2,1.678207889E-2,4.172611237E-2
3.626645960E0,-2.921789885E-3,2.126256377E-2,2.736377716E-2
3.642637171E0,-3.088071942E-3,-2.659611404E-3,3.694248199E-2
3.658597864E0,-2.132326365E-2,1.403540373E-2,-1.376152039E-3
3.674589075E0,-1.386573166E-2,1.860304922E-2,3.453445435E-2
3.690549769E0,-1.120474190E-2,1.350002736E-2,2.016735077E-2
3.706510462E0,-1.608316600E-2,-3.182604909E-3,2.974510193E-2
3.722532191E0,-2.722645551E-2,2.056002617E-2,1.537132263E-2
3.738553919E0,-1.547288895E-2,1.828338951E-2,1.058387756E-2
3.754514612E0,-1.085729152E-2,-7.783301175E-3,2.734470367E-2
3.770475306E0,-6.815657020E-3,3.064532578E-2,2.974700928E-2
3.786497034E0,-2.631267160E-2,3.083316237E-2,6.326961517E-2
3.802488245E0,-1.327290386E-2,-9.642455727E-3,5.793571472E-3
3.818479456E0,-1.067025214E-2,1.186243445E-2,3.691577911E-2
3.834470667E0,-1.929554343E-2,1.423065737E-2,2.732753754E-2
3.850431360E0,-1.874870807E-2,1.450095326E-2,2.492427826E-2
3.866392054E0,-3.079568595E-2,1.712313294E-2,3.689479828E-2
3.882413782E0,-1.927621663E-3,5.594752729E-3,3.449535370E-2
3.898343958E0,-1.581450552E-2,3.299869597E-3,2.012348175E-2
3.914335169E0,5.785360932E-3,3.357723355E-3,2.491092682E-2
3.930295862E0,-1.665947586E-2,1.297412440E-2,2.971076965E-2
3.946256556E0,-1.990732551E-2,2.025711164E-2,5.366325378E-2
3.962247767E0,-1.323402673E-2,1.578290761E-2,2.254295349E-2
3.978238978E0,-2.027499676E-2,2.565453574E-2,3.211688995E-2
3.994230189E0,-1.231104136E-2,8.874621242E-3,2.731800079E-2
4.010190882E0,-4.502229393E-3,9.189497679E-3,8.154869080E-3
4.026090540E0,-2.585256845E-2,2.197120339E-3,2.730464935E-2
4.042112269E0,7.607042789E-5,4.557520151E-5,2.970218658E-2
4.058042444E0,-1.262042671E-2,5.019385368E-3,2.492237091E-2
4.074033655E0,-1.349740475E-2,2.752047032E-3,2.253818512E-2
4.090024866E0,-2.588105947E-2,1.012889668E-2,2.254295349E-2
4.105955042E0,-9.031243622E-3,1.488842443E-2,3.690624237E-2
4.121946253E0,-4.145070910E-3,1.508006454E-2,2.014541626E-2
4.137906946E0,-2.134476602E-2,-1.155998558E-3,1.296520233E-2
4.153898157E0,-5.020752549E-3,2.565339580E-2,8.179664612E-3
4.169858851E0,-2.660907060E-2,-6.114281714E-4,1.296806335E-2
4.185758509E0,-9.980238974E-3,9.382996708E-3,3.930282593E-2
4.201780237E0,-2.681606263E-2,2.634268254E-3,3.451347351E-2
4.217740931E0,-3.060683608E-3,2.697278932E-2,2.972507477E-2
4.233701624E0,-1.782508194E-2,1.792579889E-2,1.775646210E-2
4.249662318E0,-1.401641220E-2,-7.425751537E-3,1.004219055E-3
4.265592493E0,6.713166833E-3,1.194003969E-3,3.691959381E-2
4.281614222E0,-2.744350582E-2,-4.635307938E-3,4.170989990E-2
4.297544398E0,-6.005734205E-3,2.787419781E-2,3.691577911E-2
4.313535609E0,-3.438472748E-3,-4.382379353E-3,2.014636993E-2
4.329465784E0,-7.909461856E-3,1.335044205E-2,2.013778687E-2
4.345426478E0,-9.829401970E-4,5.010697991E-3,4.647159576E-2
4.361417689E0,-6.937623024E-3,1.737287641E-2,6.323242188E-2
4.377317347E0,-1.008097827E-2,-6.278272718E-3,2.731895447E-2
4.393308558E0,-3.209801763E-2,-1.576609910E-3,1.294898987E-2
4.409269251E0,-1.322594285E-2,4.093084484E-3,2.731609344E-2
4.425199427E0,-2.520254254E-2,6.276186556E-3,3.449821472E-2
4.441221155E0,6.385490298E-3,1.335409656E-2,3.688716888E-2
4.457151331E0,-1.944503933E-2,1.605523378E-2,3.448486328E-2
4.473142542E0,-2.161493897E-2,-9.633379057E-3,3.355026245E-3
4.489103235E0,-1.229766011E-2,-9.094232693E-3,5.749702454E-3
4.505063929E0,-1.037864387E-2,8.202858269E-3,3.448486328E-2
4.521055140E0,-1.305767894E-2,2.544650063E-2,2.251625061E-2
4.536985316E0,2.323389053E-4,1.284189150E-2,3.689002991E-2
4.552976526E0,-1.205109060E-2,5.459152162E-3,2.730941772E-2
4.568876185E0,-1.721120626E-2,1.286784001E-2,1.533508301E-2
4.584836878E0,6.317824125E-3,1.088827848E-2,3.688049316E-2
4.600736536E0,-1.576259732E-2,2.762782946E-2,3.448581696E-2
4.616758265E0,-1.331673563E-2,3.544004634E-3,3.448009491E-2
4.632718958E0,-1.091527939E-2,1.357936859E-2,2.011394501E-2
4.648679651E0,-8.536279202E-3,1.438737474E-2,4.405403137E-2
4.664640345E0,-2.027010173E-2,5.558224395E-3,-3.834724426E-3
4.680601038E0,-1.775708050E-2,3.388138860E-2,4.404449463E-2
4.696622767E0,-7.089644670E-3,1.329467818E-2,3.444576263E-2
4.712583460E0,-1.009926200E-2,-2.338957228E-2,8.974075317E-4
4.728483118E0,-1.417774707E-2,-6.762472447E-3,3.280639648E-3
4.744474329E0,6.912723184E-3,1.496060286E-2,1.525688171E-2
4.760373987E0,1.749664545E-3,1.709493250E-2,6.075286865E-2
4.776304163E0,-1.225112379E-2,1.597467810E-2,3.919887543E-2
4.792325892E0,3.827556968E-3,1.503242180E-2,4.156780243E-2
4.808317103E0,-3.468081355E-3,-2.023682743E-2,1.998806000E-2
4.824247278E0,-2.441786975E-2,-1.235745847E-2,3.195476532E-2
4.840269007E0,-1.236896962E-2,4.059185740E-3,4.632282257E-2
4.856199183E0,1.985132694E-3,7.413213607E-3,3.675079346E-2
4.872190394E0,-5.261406302E-3,3.633461893E-3,3.196525574E-2
4.888151087E0,4.141569138E-3,1.230182778E-2,3.915214539E-2
4.904111780E0,-5.367413163E-3,2.420624718E-2,3.915023804E-2
4.920102991E0,-1.224959642E-2,-1.090292260E-2,2.238845825E-2
4.936002650E0,-1.657012105E-2,-1.883447357E-2,2.238655090E-2
4.951993860E0,-6.694376469E-3,-1.908762753E-2,1.759910583E-2
4.967954554E0,-1.149297506E-2,-1.692105643E-2,1.281547546E-2
4.983915247E0,-6.755381823E-3,-5.049305037E-3,2.479171753E-2
4.999906458E0,-2.083149552E-2,-7.290491834E-3,2.719020844E-2
5.015806116E0,3.469809890E-3,4.803262651E-3,2.240467072E-2
5.031766810E0,8.400872350E-3,9.979307652E-5,3.438186646E-2
5.047727503E0,3.849372268E-3,-6.560266018E-3,2.481269836E-2
5.063657679E0,6.670266390E-3,-2.295778692E-2,3.918266296E-2
5.079679407E0,-2.473168075E-3,1.823342964E-2,2.243041992E-2
5.095609583E0,-6.925955415E-3,-4.902455956E-3,1.765155792E-2
5.111631312E0,-1.612008363E-2,-1.299528778E-2,3.203105927E-2
5.127561487E0,5.905181170E-3,-2.132893354E-2,8.101463318E-3
5.143522181E0,-1.056700945E-2,-3.161802888E-4,3.923225403E-2
5.159482874E0,-1.511830091E-2,-9.420908988E-3,1.289653778E-2
5.175413050E0,-2.211906761E-2,-1.418042183E-2,5.120182037E-2
5.191434778E0,-1.916028559E-2,-2.540811151E-2,3.922748566E-2
5.207334437E0,-4.200264812E-3,-2.668131143E-2,3.204441071E-2
5.223295130E0,-3.784663975E-3,3.853812814E-4,3.443717957E-2
5.239286341E0,-8.496396244E-3,-9.285945445E-3,9.174346924E-4
5.255185999E0,-1.332454383E-3,-2.077627182E-2,2.007293701E-2
5.271207728E0,-2.758662403E-2,-1.134518534E-2,3.205776215E-2
5.287107386E0,-3.202579916E-3,-1.273544878E-2,3.207397461E-2
5.303068079E0,-2.825208008E-3,-1.270623505E-2,1.293182373E-2
5.319059290E0,-1.925700158E-2,-2.749869227E-2,3.209495544E-2
5.334958948E0,6.296485662E-5,2.880573273E-3,2.013301849E-2
5.350919642E0,1.200441271E-2,-3.388798982E-2,3.211593628E-2
5.366880335E0,-2.239033580E-3,-2.352464944E-2,-8.582115173E-3
5.382810511E0,-1.178482175E-2,-1.664435863E-2,3.929996490E-2
5.398832239E0,-1.390127093E-2,-8.707299829E-3,2.970790863E-2
5.414762415E0,1.256491989E-2,-2.712525427E-2,3.448200226E-2
5.430723109E0,-4.036203027E-3,-2.733276784E-2,2.729701996E-2
5.446653284E0,1.029426605E-2,-3.357939422E-2,2.730369568E-2
5.462552943E0,-1.142635942E-2,-3.296931833E-2,1.773357391E-2
5.478544153E0,5.539588630E-3,-1.097246259E-2,4.646492004E-2
5.494474329E0,8.492916822E-4,-3.539010882E-2,4.408264160E-2
5.510465540E0,-1.800564677E-2,-2.190298587E-2,2.495479584E-2
5.526426234E0,-8.851364255E-4,-1.334255189E-2,1.540470123E-2
5.542417444E0,-7.898658514E-3,-5.931816995E-3,2.021217346E-2
5.558378138E0,4.332751036E-3,-4.003869742E-2,4.656124115E-2
5.574308314E0,1.852624118E-3,-3.904456645E-2,2.023410797E-2
5.590299525E0,-5.253799260E-3,-2.492036670E-2,3.699111938E-2
5.606199183E0,1.410551369E-2,-3.765283525E-2,7.289409637E-2
5.622190394E0,-1.213418692E-2,-2.216041088E-2,2.741432190E-2
5.638090052E0,-2.056971192E-3,-3.723940253E-2,2.983760834E-2
5.653989710E0,7.954970002E-3,-4.729293287E-2,1.074218750E-2
5.669980921E0,1.064699888E-2,-3.615478426E-2,3.237724304E-2
5.685941614E0,3.374084830E-3,-3.874234855E-2,1.809120178E-2
5.701932825E0,-6.242156029E-3,-3.164198250E-2,1.575088501E-2
5.717924036E0,-3.787912428E-3,-3.944602609E-2,2.534866333E-2
5.733854212E0,2.259977162E-2,-4.818667471E-2,3.730010986E-2
5.749814905E0,-4.225268960E-3,-4.174739122E-2,2.529811859E-2
5.765806116E0,7.596194744E-3,-3.702344745E-2,3.484821320E-2
5.781827845E0,-1.423425227E-2,-5.208042264E-2,4.920864105E-2
5.797819056E0,-2.338863909E-3,-3.654672205E-2,2.049350739E-2
5.813810267E0,-2.215795219E-3,-4.472788423E-2,1.332569122E-2
5.829770960E0,4.944078624E-3,-6.098499894E-2,1.572513580E-2
5.845792689E0,-2.383992076E-3,-7.379589975E-2,4.444789886E-2
5.861753382E0,6.858944893E-3,-4.929194599E-2,4.922008514E-2
5.877775110E0,-2.934448421E-3,-6.853785366E-2,3.722381592E-2
5.893705286E0,1.801736653E-3,-4.083238542E-2,3.721332550E-2
5.909696497E0,1.134980470E-2,-4.604755342E-2,3.962898254E-2
5.925657191E0,-3.097735345E-3,-7.369239628E-2,3.727531433E-2
5.941648401E0,-1.514817774E-2,-6.702429801E-2,2.056694031E-2
5.957578577E0,-3.214687109E-3,-7.560211420E-2,2.300262451E-2
5.973600306E0,1.782290637E-3,-6.847169995E-2,2.542304993E-2
5.989530482E0,-2.799049020E-3,-5.890744925E-2,2.545166016E-2
6.005491175E0,-1.229993999E-2,-6.677074730E-2,3.026103973E-2
6.021512903E0,-1.698511094E-2,-7.204347849E-2,3.986072540E-2
6.037504114E0,1.177047193E-2,-9.578731656E-2,1.595306396E-2
6.053495325E0,-7.364153862E-3,-7.696354389E-2,2.316474915E-2
6.069486536E0,-5.052022636E-3,-5.383832753E-2,6.388759613E-2
6.085447230E0,-1.485235989E-2,-5.854576826E-2,1.840209961E-2
6.101407923E0,-2.924546599E-3,-6.916257739E-2,2.560424805E-2
6.117368616E0,-1.241748780E-2,-7.219488919E-2,2.083873749E-2
6.133268275E0,-2.910867333E-3,-6.206090748E-2,3.045845032E-2
6.149228968E0,9.064204991E-3,-7.924038172E-2,3.531074524E-2
6.165189661E0,-7.616311312E-3,-7.275356352E-2,1.852989197E-3
6.181150355E0,4.471354187E-3,-8.100943267E-2,4.303932190E-3
6.197172083E0,6.885170937E-3,-7.822011411E-2,5.941390991E-2
6.213102259E0,-4.418790340E-4,-9.351570904E-2,3.074741364E-2
6.229123987E0,-1.010739803E-2,-6.956583261E-2,3.561592102E-2
6.245023646E0,-5.333870649E-3,-9.230175614E-2,3.328323364E-2
6.260984339E0,-1.741351932E-2,-9.281359613E-2,1.655769348E-2
6.276975550E0,-5.487814546E-3,-7.257519662E-2,2.854919434E-2
6.292875208E0,-7.930129766E-3,-7.585752010E-2,1.416969299E-2
6.308866419E0,-1.266010106E-2,-8.865815401E-2,3.330707550E-2
6.324827112E0,-6.197318435E-4,-9.486325085E-2,4.592895508E-3
6.340787806E0,6.900779903E-3,-8.530128002E-2,3.096580505E-2
6.356779017E0,1.642249525E-2,-8.763666451E-2,3.579902649E-2
6.372709193E0,-1.000739634E-2,-8.501182497E-2,3.105926514E-2
6.388700403E0,-2.932704985E-3,-8.041611314E-2,2.391910553E-2
6.404569544E0,-2.193622291E-2,-8.154554665E-2,4.069900513E-2
6.420530237E0,-1.449958980E-2,-7.682482898E-2,2.876949310E-2
6.436521448E0,-4.638336599E-3,-9.076863527E-2,7.316589355E-3
6.452421107E0,-9.095445275E-3,-8.550281823E-2,1.459884644E-2
6.468442835E0,-1.131620258E-2,-8.397246897E-2,2.185726166E-2
6.484403528E0,-1.842183620E-2,-8.973352611E-2,7.520675659E-3
6.500303187E0,-8.873537183E-3,-8.971673250E-2,2.906894684E-2
6.516324915E0,-1.505643129E-3,-8.028513193E-2,2.666950226E-2
6.532255091E0,-1.117925346E-2,-9.555561841E-2,3.867340088E-2
6.548215784E0,-6.360143423E-3,-1.071342975E-1,3.394222260E-2
6.564115443E0,-1.083226502E-2,-9.620904922E-2,1.725578308E-2
6.580015101E0,-5.871184170E-3,-8.897045255E-2,5.474090576E-4
6.596006312E0,-2.229139209E-2,-1.080781966E-1,2.453804016E-2
6.611967005E0,-5.289092660E-4,-8.421219885E-2,1.500988007E-2
6.627958216E0,-5.159795284E-3,-8.472084999E-2,-1.709938049E-3
6.643949427E0,-5.126915872E-3,-8.100192249E-2,4.141426086E-2
6.659910120E0,6.504990160E-3,-9.695614874E-2,3.185939789E-2
6.675901331E0,-2.196105570E-2,-8.424293995E-2,1.750755310E-2
6.691862025E0,-1.470223069E-2,-9.747543931E-2,5.344581604E-2
6.707883753E0,-1.698923856E-2,-6.171068549E-2,3.673553467E-2
6.723783411E0,2.281539142E-3,-5.590270460E-2,3.681182861E-2
6.739744105E0,-1.163186878E-2,-9.230156243E-2,2.493762970E-2
6.755735316E0,-1.394826174E-2,-8.343851566E-2,2.503299713E-2
6.771757044E0,-2.176836133E-3,-1.073126942E-1,5.941390991E-3
6.787748255E0,-3.090500832E-5,-1.057463884E-1,3.225994110E-2
6.803708948E0,4.662036896E-3,-8.513459563E-2,5.133438110E-2
6.819700159E0,-4.958100617E-3,-8.590516448E-2,4.886627197E-2
6.835691370E0,1.187105477E-2,-9.059982002E-2,3.689575195E-2
6.851682581E0,-2.476274967E-4,-7.793401182E-2,1.781749725E-2
6.867643275E0,-5.012668669E-3,-8.994443715E-2,6.581497192E-2
6.883665003E0,-7.353432477E-3,-1.021408290E-1,-3.505706787E-3
6.899625696E0,-1.471810788E-2,-1.124225706E-1,1.569271088E-2
6.915616907E0,-7.803522050E-3,-8.529976010E-2,3.241539001E-2
6.931577601E0,-5.563393235E-3,-1.127829701E-1,4.430103302E-2
6.947568812E0,-2.475102991E-2,-1.032233536E-1,4.663658142E-2
6.963529505E0,6.397329271E-3,-1.035224497E-1,5.381298065E-2
6.979490198E0,-1.991572231E-2,-9.954951704E-2,1.075458527E-2
6.995481409E0,1.816429198E-3,-9.992724657E-2,4.432106018E-2
7.011442103E0,-2.801060677E-3,-1.056388468E-1,1.801776886E-2
7.027433314E0,-1.712803543E-2,-8.188147843E-2,1.253128052E-3
7.043394007E0,4.749976099E-3,-1.122933924E-1,3.478717804E-2
7.059354700E0,-7.300056517E-3,-9.099702537E-2,4.190444946E-2
7.075345911E0,-2.398133278E-3,-9.101861715E-2,3.950881958E-2
7.091245569E0,-7.067717612E-3,-9.047964215E-2,3.239727020E-2
7.107236780E0,-4.566907883E-3,-1.096155494E-1,3.969860077E-2
7.123166956E0,-9.000048041E-3,-1.148406565E-1,2.783393860E-2
7.139066614E0,-4.040136933E-3,-9.357169271E-2,1.830863953E-2
7.155088343E0,-1.656986773E-3,-1.034564376E-1,1.351261139E-2
7.171018519E0,-1.771904528E-3,-9.295517206E-2,4.460144043E-2
7.187009730E0,2.983525395E-3,-9.592390060E-2,1.106929779E-2
7.202939905E0,-3.961384296E-3,-1.037144065E-1,2.068805695E-2
7.218839564E0,7.994338870E-3,-9.753501415E-2,8.815765381E-3
7.234861292E0,-6.287194788E-3,-1.130545139E-1,3.285217285E-2
7.250791468E0,-1.139578968E-2,-1.113274693E-1,2.093124390E-2
7.266752161E0,-9.050004184E-3,-1.170080006E-1,3.287887573E-2
7.282743372E0,1.224865019E-2,-1.026934981E-1,3.281688690E-2
7.298704066E0,-2.222187817E-3,-1.092407107E-1,4.713726044E-2
7.314695276E0,4.843495786E-3,-1.003991663E-1,2.078342438E-2
7.330686487E0,-1.178287715E-2,-1.041828990E-1,1.123142242E-2
7.346677698E0,-9.179040790E-3,-1.047565341E-1,2.803611755E-2
7.362638392E0,-4.297651350E-3,-1.016718149E-1,4.002475739E-2
7.378568568E0,-6.689861417E-3,-8.651441336E-2,4.004573822E-2
7.394590296E0,-1.853319257E-2,-1.021855474E-1,8.948326111E-3
7.410489954E0,3.126457334E-3,-1.035878062E-1,4.184722900E-3
7.426450648E0,8.029900491E-3,-1.079552472E-1,3.053188324E-2
7.442411341E0,8.861795068E-4,-8.017551899E-2,1.374530792E-2
7.458341517E0,5.750939250E-3,-9.610369802E-2,4.243373871E-2
7.474363245E0,-1.086796075E-2,-9.183499217E-2,3.523635864E-2
7.490293421E0,-1.795865595E-2,-7.499086857E-2,2.326583862E-2
7.506284632E0,-1.055143028E-2,-8.431741595E-2,1.608753204E-2
7.522245325E0,-9.062364697E-4,-8.521431684E-2,2.563953400E-2
7.538206019E0,3.854528069E-3,-1.093380153E-1,1.599502563E-2
7.554227747E0,-6.093256176E-3,-8.106693625E-2,5.417060852E-2
7.570218958E0,-6.318464875E-3,-7.825686038E-2,2.766513824E-2
7.586149134E0,7.781088352E-4,-9.563998878E-2,3.950405121E-2
7.602140345E0,7.789500058E-3,-7.214289904E-2,3.225421906E-2
7.618162073E0,-1.139301062E-2,-9.462440014E-2,3.462696075E-2
7.634153284E0,-1.894220710E-3,-7.218421996E-2,3.459167480E-2
7.650144495E0,-1.393917948E-2,-8.493609726E-2,2.494049072E-2
7.666135706E0,2.758823335E-3,-7.763357460E-2,8.128166199E-3
7.682126917E0,-6.833106279E-3,-6.715074182E-2,2.479743958E-2
7.698057093E0,-1.141832769E-2,-8.390668035E-2,7.438659668E-4
7.713987269E0,1.472979784E-2,-7.984524965E-2,1.020145416E-2
7.730008997E0,4.866980016E-3,-7.552570105E-2,1.243400574E-2
7.745969691E0,-4.914700985E-3,-7.086037099E-2,4.575538635E-2
7.761930384E0,-1.238393039E-2,-8.547197282E-2,1.204681396E-2
7.777952112E0,-7.718183100E-3,-6.931526959E-2,2.387428284E-2
7.793882288E0,-1.971848309E-2,-7.222346961E-2,4.293251038E-2
7.809904017E0,4.064492881E-3,-8.122652769E-2,3.088855743E-2
7.825834193E0,-1.760141551E-2,-6.116998196E-2,4.040050507E-2
7.841855921E0,-7.783472538E-4,-6.810167432E-2,2.125072479E-2
7.857847132E0,-8.100599051E-3,-8.022223413E-2,3.800964355E-2
7.873807825E0,1.063669473E-2,-5.577863753E-2,2.361679077E-2
7.889829554E0,-1.366138458E-2,-5.685834587E-2,3.074550629E-2
7.905790247E0,-6.426639855E-3,-5.820384622E-2,2.350139618E-2
7.921750941E0,8.419528604E-4,-6.904971600E-2,5.221080780E-2
7.937650599E0,-3.900662065E-3,-5.248965323E-2,2.108287811E-2
7.953672327E0,-3.848597407E-3,-3.342317045E-2,-4.673004150E-4
7.969571985E0,-1.593227684E-2,-6.040725112E-2,2.825450897E-2
7.985593714E0,-8.961617947E-3,-3.914922476E-2,2.342700958E-2
8.001523890E0,1.017200202E-2,-2.833937109E-2,1.143836975E-2
8.017454066E0,-9.226717055E-3,-1.916943491E-2,3.526878357E-2
8.033414759E0,-1.151047647E-2,-4.826660454E-2,1.125049591E-2
8.049344935E0,-4.132218659E-3,-3.364311159E-2,8.791923523E-3
8.065366663E0,-4.186347127E-3,-4.488657415E-2,2.549648285E-2
8.081296839E0,2.900429070E-3,-3.827534616E-2,3.982448578E-2
8.097196497E0,2.842269838E-3,-3.116135299E-2,3.021717072E-2
8.113218226E0,-1.157460362E-2,-3.800718486E-2,3.497982025E-2
8.129148401E0,4.959627986E-4,-2.415837348E-2,2.536582947E-2
8.145139612E0,6.108358502E-4,-1.032140106E-2,4.206085205E-2
8.161100306E0,4.541128874E-4,-4.368871450E-4,1.804351807E-2
8.177060999E0,-1.155512780E-2,-3.128729761E-3,2.993488312E-2
8.193052210E0,1.005711406E-2,1.858308166E-2,4.901885986E-2
8.208951868E0,-4.098884761E-3,-2.856068313E-3,2.742576599E-2
8.224912562E0,-1.394089311E-2,-4.844725132E-3,2.501678467E-2
8.240873255E0,2.912654728E-2,-1.459660381E-2,2.501583099E-2
8.256803431E0,-4.240356386E-3,-1.226298511E-2,4.416656494E-2
8.272825159E0,-1.376260072E-2,-1.125390828E-2,4.176139832E-2
8.288755335E0,2.952285111E-3,-2.043217421E-3,2.497863770E-2
8.304746546E0,-1.652560383E-2,1.085942239E-2,2.016162872E-2
8.320676722E0,2.092197537E-4,-3.283545375E-4,1.773738861E-2
8.336637415E0,9.601570666E-3,1.550272107E-3,2.968883514E-2
8.352598109E0,-5.704909563E-5,-1.384817064E-2,3.447055817E-2
8.368528284E0,9.330324829E-3,3.102123737E-3,3.447437286E-2
8.384550013E0,1.651225984E-2,-5.852341652E-3,2.968978882E-2
8.400480189E0,9.377717972E-3,1.378203556E-2,2.729892731E-2
8.416440882E0,2.151608467E-3,1.272561401E-2,1.055049896E-2
8.432371058E0,4.406273365E-5,1.478192583E-2,-1.100444794E-2
8.448301234E0,4.593759775E-3,2.034344152E-2,2.250671387E-2
8.464292444E0,-2.445876598E-4,7.698483765E-3,4.404926300E-2
8.480192103E0,-1.235997677E-2,1.861594245E-2,3.446769714E-2
8.496183314E0,6.796434522E-3,2.259666473E-2,2.249145508E-2
8.512082972E0,-2.183772624E-2,5.169734359E-3,1.769733429E-2
8.527982630E0,-1.036832482E-2,1.102557033E-2,2.966403961E-2
8.543973841E0,3.867305815E-3,1.890531182E-2,3.444385529E-2
8.559904017E0,-1.506845653E-2,2.202000841E-2,2.485275269E-2
8.575864710E0,-1.033850014E-2,1.574787870E-2,4.639244080E-2
8.591855921E0,3.999561071E-3,5.915034562E-3,3.681468964E-2
8.607755579E0,3.771208227E-3,2.817126364E-2,2.963829041E-2
8.623746790E0,-5.637794733E-3,1.159720868E-2,8.090019226E-3
8.639676966E0,-8.320212364E-4,3.790099174E-2,2.245521545E-2
8.655637659E0,1.358040422E-2,4.885118827E-2,8.082389832E-3
8.671628870E0,-1.352927834E-2,4.444855452E-2,5.356884003E-2
8.687528528E0,-4.359491169E-3,2.376635000E-2,3.680706024E-2
8.703519739E0,2.156540751E-3,3.766306117E-2,1.047515869E-2
8.719480433E0,-9.987019002E-3,2.589643002E-2,4.160308838E-2
8.735410609E0,4.697136581E-3,4.760761559E-2,3.681278229E-2
8.751371302E0,-1.435781270E-2,3.488827497E-2,4.638385773E-2
8.767301478E0,-9.930305183E-3,2.346201614E-2,1.285839081E-2
8.783292689E0,1.029968262E-2,2.527080104E-2,3.440570831E-2
8.799253382E0,4.432432353E-3,5.372191966E-2,3.680038452E-2
8.815275110E0,1.161677390E-2,3.616495430E-2,3.200817108E-2
8.831266321E0,2.732060850E-3,3.501428664E-2,3.200531006E-2
8.847257532E0,-7.340759039E-4,2.417944558E-2,1.045989990E-2
8.863248743E0,-9.733088315E-3,4.417762905E-2,3.273963928E-3
8.879209437E0,-7.260061800E-3,3.608981892E-2,3.440570831E-2
8.895139612E0,1.672697812E-2,3.236052021E-2,2.962303162E-2
8.911130823E0,-2.787254751E-3,6.262537837E-2,2.724361420E-2
8.927152552E0,-3.047011793E-3,4.029089957E-2,2.964973450E-2
8.943113245E0,1.453548670E-3,2.983945608E-2,3.684520721E-2
8.959104456E0,1.082004607E-2,5.774598196E-2,3.446292877E-2
8.975095667E0,1.614063978E-3,7.168357074E-2,5.601882935E-2
8.991056360E0,-1.967176795E-4,6.837268919E-2,2.252006531E-2
9.007078089E0,7.995292544E-4,3.769315407E-2,1.775741577E-2
9.023038782E0,-1.554007828E-2,7.096490264E-2,2.736473083E-2
9.038938441E0,-5.890481174E-3,4.406305030E-2,-3.746986389E-3
9.054929651E0,-4.000484943E-3,5.412965640E-2,2.738761902E-2
9.070890345E0,2.706617117E-3,6.170938537E-2,2.979087830E-2
9.086912073E0,1.181451976E-2,5.574041978E-2,4.177761078E-2
9.102842249E0,2.021536231E-3,6.603056192E-2,3.941154480E-2
9.118802943E0,1.207266748E-2,5.853299052E-2,2.747631073E-2
9.134824671E0,3.022082150E-3,6.835056841E-2,2.512168884E-2
9.150754847E0,-8.731745183E-3,7.888485491E-2,2.515220642E-2
9.166776575E0,-6.139077246E-3,8.401479572E-2,3.606796265E-3
9.182706751E0,5.616106093E-3,7.583038509E-2,3.714179993E-2
9.198667444E0,-6.625413895E-3,9.275125712E-2,4.193496704E-2
9.214689173E0,4.083588719E-4,8.601080626E-2,2.997016907E-2
9.230619349E0,5.062989891E-3,9.613457322E-2,4.194831848E-2
9.246641077E0,3.048695624E-3,8.033668995E-2,2.998161316E-2
9.262601771E0,8.176095784E-3,8.596283197E-2,2.041053772E-2
9.278623499E0,-1.316162944E-2,5.629614741E-2,2.042293549E-2
9.294614710E0,-1.789119095E-2,6.539422274E-2,2.283668518E-2
9.310636439E0,1.359149814E-3,7.933770120E-2,2.764701843E-2
9.326566614E0,-1.506511122E-2,7.480645180E-2,1.806831360E-2
9.342557825E0,-6.563663483E-4,7.888089865E-2,3.694534302E-3
9.358518519E0,8.994817734E-3,8.598075062E-2,3.002929688E-2
9.374479212E0,6.909616292E-3,8.874742687E-2,3.002929688E-2
9.390470423E0,9.837031364E-3,8.064782619E-2,1.567363739E-2
9.406431116E0,2.872966230E-3,8.688805997E-2,6.111145020E-3
9.422422327E0,3.774911165E-4,7.540318370E-2,3.484821320E-2
9.438383021E0,7.125735283E-5,8.915185183E-2,2.287387848E-2
9.454343714E0,-1.670914143E-2,6.970995665E-2,4.441833496E-2
9.470334925E0,4.258528352E-4,7.304417342E-2,2.287769318E-2
9.486265101E0,-6.523422897E-3,7.640407979E-2,3.485584259E-2
9.502286829E0,6.438642740E-4,7.066409290E-2,1.808643341E-2
9.518186487E0,-8.808746934E-3,7.331672311E-2,3.008556366E-2
9.534086146E0,-9.186312556E-3,7.241657376E-2,2.529144287E-2
9.550046839E0,-2.122053504E-2,6.952901185E-2,3.246974945E-2
9.566068568E0,-4.307128489E-3,7.780022919E-2,2.769184113E-2
9.582029261E0,7.892772555E-4,8.439359069E-2,3.249740601E-2
9.598050989E0,8.297823370E-3,6.453905255E-2,4.448413849E-2
9.614011683E0,6.186224520E-3,8.076675981E-2,1.816844940E-2
9.630033411E0,-1.264300942E-2,9.151686728E-2,4.212093353E-2
9.645963587E0,-7.264390588E-4,7.950983942E-2,1.578426361E-2
9.661985316E0,-3.430403769E-3,7.181446254E-2,3.014659882E-2
9.677946009E0,5.912557244E-3,8.943849057E-2,1.816082001E-2
9.693845667E0,1.048782468E-2,8.757673949E-2,4.447650909E-2
9.709867396E0,1.288896799E-2,8.213619888E-2,2.531528473E-2
9.725767054E0,3.434449434E-3,8.615271747E-2,5.166912079E-2
9.741788782E0,8.639797568E-3,8.694285154E-2,3.015518188E-2
9.757718958E0,3.879711032E-3,6.119418889E-2,3.497982025E-2
9.773649134E0,-8.159987628E-3,9.766167402E-2,4.695892334E-2
9.789640345E0,6.189435720E-3,9.405954182E-2,6.241798401E-3
9.805540003E0,1.055450737E-2,9.087128937E-2,6.369781494E-2
9.821500696E0,-8.574180305E-3,9.725427628E-2,3.498744965E-2
9.837491907E0,1.089893281E-3,7.491639256E-2,8.670806885E-3
9.853422083E0,1.310937107E-3,8.082242310E-2,1.825904846E-2
9.869413294E0,6.304912269E-3,8.411280811E-2,3.027057648E-2
9.885373987E0,-7.947936654E-3,8.272191882E-2,1.352310181E-2
9.901365198E0,3.822192550E-3,9.110931307E-2,4.942321777E-2
9.917325892E0,-6.141968071E-3,8.677795529E-2,2.546024323E-2
9.933225550E0,1.261290908E-2,8.088637888E-2,3.502655029E-2
9.949247278E0,2.229619771E-2,7.456599176E-2,3.021812439E-2
9.965177454E0,-6.008014083E-3,6.742887199E-2,1.348495483E-2
9.981168665E0,-3.401547670E-3,7.102543116E-2,3.504657745E-2
9.997159876E0,8.748598397E-3,7.848833501E-2,2.783393860E-2
1.001309005E1,8.496262133E-3,7.647411525E-2,1.823425293E-2
1.002905075E1,-1.296964288E-2,6.934840232E-2,3.256988525E-2
1.004507247E1,-1.065379381E-2,7.359653711E-2,2.535152435E-2
1.006103317E1,-3.733582795E-3,9.011650085E-2,2.053451538E-2
1.007696334E1,3.354936838E-3,6.375433505E-2,3.247833252E-2
1.009289352E1,5.522117019E-3,1.016398668E-1,5.399608612E-2
1.010888473E1,5.704164505E-4,6.101111323E-2,2.524185181E-2
1.012484542E1,4.122331738E-4,5.980966985E-2,1.325988770E-2
1.014083663E1,1.332387328E-4,7.027424872E-2,8.458137512E-3
1.015682784E1,-7.157161832E-3,4.641060904E-2,2.040481567E-2
1.017278854E1,4.837356508E-3,7.459069788E-2,1.319217682E-2
1.018877975E1,2.510577440E-3,5.978527665E-2,3.231620789E-2
1.020474044E1,2.586647868E-3,4.575354978E-2,1.074600220E-2
1.022073165E1,-9.293690324E-3,5.630552769E-2,3.467369080E-2
1.023669235E1,-6.763920188E-3,5.021246150E-2,1.790046692E-2
1.025266784E1,5.304932594E-3,4.157677665E-2,2.027893066E-2
1.026865905E1,-2.126939595E-3,5.115867406E-2,2.983760834E-2
1.028465026E1,2.300083637E-3,6.031952426E-2,3.699874878E-2
1.030064148E1,1.400260627E-2,4.580460489E-2,1.064395905E-2
1.031660217E1,-7.666982710E-3,3.206933662E-2,4.175472260E-2
1.033256286E1,2.244524658E-3,2.219818532E-2,2.738380432E-2
1.034858459E1,-7.165074348E-3,3.908267245E-2,1.062297821E-2
1.036448425E1,2.706222236E-3,2.659321576E-2,3.455734253E-2
1.038044494E1,-2.054959536E-3,3.222232312E-2,5.812644958E-3
1.039640564E1,9.797602892E-3,4.299114272E-2,2.017021179E-2
1.041233581E1,9.695969522E-3,5.205135420E-2,3.213882446E-2
1.042835754E1,1.410320401E-4,3.730298206E-2,2.495288849E-2
1.044425720E1,-1.405705512E-2,2.702758089E-2,1.536846161E-2
1.046024841E1,-4.394344985E-3,3.209478036E-2,5.126380920E-2
1.047620910E1,2.426825464E-3,2.961445227E-2,2.970218658E-2
1.049213928E1,-5.122818053E-3,2.975648269E-2,4.405498505E-2
1.050813049E1,-2.422805876E-2,4.045289755E-2,2.728557587E-2
1.052409118E1,-4.950113595E-3,2.146491408E-2,1.052570343E-2
1.054008239E1,-9.801827371E-3,1.496126503E-2,5.743026733E-3
1.055604309E1,-2.776689827E-3,1.994556561E-2,1.771831512E-2
1.057206481E1,4.304565489E-3,3.398424014E-2,1.532173157E-2
1.058799499E1,-1.015410572E-2,1.853023097E-2,1.531505585E-2
1.060401672E1,4.223503172E-3,2.238505334E-2,3.925037384E-2
1.061997741E1,6.700463593E-3,2.709195390E-2,2.727890015E-2
1.063590759E1,-1.231430471E-2,1.049674675E-2,2.488327026E-2
1.065183776E1,-4.759803414E-4,1.763810590E-2,2.488517761E-2
1.066779846E1,1.366198063E-2,3.829802573E-2,1.769924164E-2
1.068372863E1,6.264731288E-3,4.676509276E-2,2.966403961E-2
1.069971984E1,-1.325779408E-2,2.234089747E-2,1.290702820E-2
1.071561950E1,-6.219148636E-3,3.205715492E-2,2.727508545E-2
1.073161071E1,-8.554473519E-3,8.847564459E-4,1.290893555E-2
1.074751037E1,1.132175326E-3,2.431260422E-2,1.050949097E-2
1.076341003E1,-1.318297535E-2,-2.313077450E-3,3.205490112E-2
1.077937072E1,-5.996331573E-3,1.910677552E-2,1.768875122E-2
1.079533142E1,-1.799202710E-2,3.322163224E-2,4.402351379E-2
1.081126159E1,1.048423350E-3,1.936873794E-2,2.487468719E-2
1.082728332E1,-1.192606986E-3,1.480280608E-2,3.925514221E-2
1.084321350E1,-3.916747868E-3,2.669941634E-2,4.647541046E-2
1.085920471E1,-1.373213530E-2,1.062009484E-2,3.454875946E-2
1.087513488E1,7.763594389E-3,1.874880493E-2,2.260589600E-2
1.089109558E1,-9.201198816E-3,9.725503623E-3,2.740192413E-2
1.090711730E1,-6.839692593E-3,2.136584371E-2,4.415893555E-2
1.092301696E1,-1.632919908E-2,2.534878626E-2,3.459358215E-2
1.093903869E1,7.837668061E-3,9.849458933E-3,4.182720184E-2
1.095499938E1,5.980961025E-3,-5.493842065E-3,1.317214966E-2
1.097092956E1,-5.582176149E-3,1.950728148E-2,2.282905579E-2
1.098695129E1,1.776732504E-3,1.538437605E-2,2.767562866E-2
1.100285095E1,1.154581457E-2,1.594021916E-2,-1.024246216E-3
1.101881164E1,-2.182605863E-2,8.161514997E-3,2.533245087E-2
1.103480285E1,2.406820655E-3,-4.327379167E-3,3.803253174E-3
1.105073303E1,-2.077240497E-2,1.523005962E-2,-4.645061493E-2
1.106672424E1,-8.935362101E-3,-6.817676127E-3,3.258419037E-2
1.108262390E1,-1.899135113E-2,1.889443398E-2,1.352024078E-2
1.109858459E1,-1.164846122E-2,-1.012718678E-2,3.033733368E-2
1.111454528E1,-6.810158491E-3,4.463165998E-3,5.195522308E-2
1.113047546E1,5.200281739E-4,5.114316940E-3,2.808952332E-2
1.114649719E1,-1.375479996E-2,1.978680491E-3,2.814865112E-2
1.116242736E1,-1.141910255E-2,3.759503365E-3,2.817630768E-2
1.117844909E1,-9.342685342E-3,-1.917213202E-3,2.816581726E-2
1.119434875E1,5.017630756E-3,-9.496003389E-3,3.773689270E-2
1.121030944E1,1.214341819E-2,7.044330239E-3,3.294658661E-2
1.122633117E1,-2.276144922E-3,3.858104348E-3,-5.483627319E-4
1.124223083E1,-1.664467901E-2,2.111941576E-4,3.063106537E-2
1.125822204E1,-2.318397164E-3,1.152680814E-2,1.872730255E-2
1.127415222E1,2.471908927E-3,-1.560099423E-2,1.879119873E-2
1.129011291E1,-1.207590848E-2,-3.208562732E-3,-3.137588501E-4
1.130610412E1,-2.388834953E-3,3.689751029E-3,2.115249634E-3
1.132200378E1,-2.391989529E-2,-4.157081246E-3,1.411628723E-2
1.133799499E1,2.240307629E-3,-5.186289549E-3,3.090095520E-2
1.135386413E1,-1.208418608E-2,4.264235497E-3,5.009269714E-2
1.136982482E1,-9.521484375E-3,-4.388481379E-3,2.381420135E-2
1.138581604E1,-2.212993801E-3,-8.022785187E-4,1.669406891E-2
1.140171569E1,-4.942864180E-3,-7.852911949E-6,2.872848511E-2
1.141770690E1,-1.605600119E-4,-8.445888758E-3,3.597640991E-2
1.143366760E1,-2.736441791E-3,-9.411826730E-3,9.716033936E-3
1.144962829E1,-1.250354946E-2,-3.769949079E-3,2.893543243E-2
1.146561950E1,-3.115355968E-3,-1.213736832E-2,4.337406158E-2
1.148151916E1,-7.910519838E-3,-1.447699964E-2,2.192497253E-2
1.149747985E1,8.809022605E-3,-1.050798595E-2,5.078792572E-2
1.151341003E1,-5.838125944E-4,-1.731200516E-2,3.658390045E-2
1.152940124E1,-1.485098153E-2,-2.951395512E-2,-8.753776550E-3
1.154533142E1,-1.967958361E-2,-1.069167256E-2,3.683948517E-2
1.156135314E1,-2.883553505E-3,-3.609642386E-3,3.210353851E-2
1.157731384E1,1.851193607E-3,-6.441429257E-3,1.778507233E-2
1.159321350E1,-1.519948989E-2,-8.603796363E-3,3.700447083E-2
1.160920471E1,-8.264191449E-3,-3.642693162E-3,4.909801483E-2
1.162510436E1,-1.271954179E-2,4.703432322E-3,1.099300385E-2
1.164103454E1,4.150748253E-3,-2.273109555E-2,2.803039551E-2
1.165702575E1,4.511900246E-3,-3.892898560E-3,1.876163483E-2
1.167292541E1,6.729364395E-5,-1.811140776E-2,9.451866150E-3
1.168888610E1,-1.184824854E-2,-3.361138701E-2,9.625434875E-3
1.170484680E1,2.473115921E-3,-2.485412359E-2,1.206684113E-2
1.172077697E1,-1.226743311E-2,-2.295675874E-2,3.353500366E-2
1.173676818E1,-2.966322005E-3,-1.076629758E-2,4.777145386E-2
1.175269836E1,-7.789596915E-3,-8.636504412E-3,2.375507355E-2
1.176865905E1,6.549015641E-3,-4.502832890E-3,4.774665833E-2
1.178465026E1,-1.953726262E-2,-1.425045729E-2,2.872180939E-2
1.180058044E1,-1.456799358E-2,-1.844030619E-2,1.468658447E-4
1.181657165E1,-1.214729249E-2,-4.403939843E-2,2.896881104E-2
1.183247131E1,-1.464971900E-2,-1.416483521E-2,3.379249573E-2
1.184843200E1,2.141565084E-3,-9.383857250E-3,2.661037445E-2
1.186439270E1,-9.860582650E-3,-1.226845384E-2,5.293178558E-2
1.188029235E1,-1.003877819E-2,-1.354730129E-2,3.860187531E-2
1.189631408E1,-7.573656738E-3,-1.221829653E-2,2.913570404E-2
1.191227478E1,2.064079046E-3,-2.072215080E-2,6.043910980E-2
1.192817443E1,-2.626359463E-3,-2.511969209E-2,7.926940918E-3
1.194419616E1,-7.395409048E-3,-3.625583649E-2,1.521110535E-2
1.196012634E1,1.655507833E-2,-3.400912881E-2,1.281166077E-2
1.197608703E1,-7.471546531E-3,-2.458959818E-2,5.343437195E-2
1.199201721E1,-1.004762203E-2,-1.178103685E-2,6.057071686E-2
1.200791686E1,-3.408520669E-2,-1.080530882E-2,3.426551819E-2
1.202393859E1,-4.343017936E-4,-2.854716778E-2,4.874897003E-2
1.203986877E1,-1.715473086E-2,-1.200565696E-2,1.777076721E-2
1.205585998E1,-1.947256923E-2,-3.998231888E-2,1.300525665E-2
1.207182067E1,4.371039569E-3,-2.443143725E-2,2.733325958E-2
1.208781188E1,-1.967187971E-2,-5.009052157E-2,9.431838989E-4
1.210377258E1,-2.437247336E-2,-2.451974154E-2,3.311157227E-3
1.211979431E1,-5.266457796E-3,-5.002763867E-2,4.164600372E-2
1.213575500E1,-9.749531746E-3,-4.382386804E-2,3.929328918E-2
1.215165466E1,-1.433264464E-2,-5.440494418E-2,2.257728577E-2
1.216758483E1,-2.074576914E-3,-4.311287403E-2,2.741718292E-2
1.218354553E1,-4.291728139E-3,-6.002333760E-2,1.551628113E-2
1.219944518E1,-1.380465925E-2,-6.297245622E-2,2.036476135E-2
1.221540588E1,-2.339873463E-2,-4.730954766E-2,2.040767670E-2
1.223136657E1,-4.295632243E-3,-4.879835248E-2,2.762126923E-2
1.224729675E1,-1.364009827E-2,-6.377214193E-2,2.528381348E-2
1.226331848E1,3.531992435E-3,-7.067498565E-2,3.494548798E-2
1.227924865E1,-3.312736750E-3,-7.326194644E-2,2.064895630E-2
1.229523986E1,-1.736204326E-2,-6.434085965E-2,1.591587067E-2
1.231113952E1,-7.613331079E-3,-7.526531816E-2,2.792167664E-2
1.232710022E1,-2.388693392E-2,-6.264039874E-2,3.033161163E-2
1.234309143E1,-1.174096018E-2,-6.206429005E-2,4.232120514E-2
1.235902160E1,5.172058940E-3,-5.768519640E-2,5.196380615E-2
1.237501281E1,-4.283860326E-3,-7.608059049E-2,3.778934479E-2
1.239094299E1,1.264988631E-2,-9.172078967E-2,2.850532532E-2
1.240687316E1,-4.176191986E-3,-6.577566266E-2,-4.768371582E-3
1.242286438E1,7.719650865E-3,-8.432811499E-2,3.125572205E-2
1.243879455E1,-1.854681969E-2,-9.730926156E-2,2.643013000E-2
1.245478576E1,-1.373904198E-2,-8.797881007E-2,5.266952515E-2
1.247074646E1,-1.357552409E-2,-9.351566434E-2,5.742835999E-2
1.248676818E1,5.977943540E-3,-9.584450722E-2,3.117752075E-2
1.250272888E1,-1.535107940E-2,-9.844690561E-2,3.134346008E-2
1.251872009E1,-1.023341715E-2,-1.020993590E-1,-6.835937500E-3
1.253468078E1,-5.125634372E-3,-1.007140875E-1,3.151988983E-2
1.255070251E1,7.077053189E-3,-1.090403497E-1,2.668571472E-2
1.256669372E1,-1.689323783E-2,-9.572422504E-2,2.895164490E-2
1.258268493E1,9.400866926E-3,-1.062261164E-1,3.122425079E-2
1.259864563E1,-9.842850268E-3,-9.526696801E-2,3.358268738E-2
1.261463684E1,-6.920844316E-5,-9.445142746E-2,2.163887024E-2
1.263059753E1,-4.882209003E-3,-1.102257967E-1,3.364658356E-2
1.264649719E1,4.718154669E-3,-1.072076559E-1,3.127479553E-2
1.266251892E1,-3.141313791E-4,-1.098109484E-1,5.290699005E-2
1.267844909E1,-8.082389832E-5,-1.176972091E-1,1.474952698E-2
1.269447082E1,-1.191116124E-2,-1.073169410E-1,7.685661316E-3
1.271040100E1,-2.147123218E-3,-9.836953878E-2,2.211570740E-2
1.272636169E1,4.696957767E-3,-9.495726228E-2,3.412914276E-2
1.274232238E1,6.906419992E-3,-8.498406410E-2,3.663253784E-2
1.275822204E1,4.407234490E-3,-9.971261024E-2,1.525783539E-2
1.277421325E1,-1.709691435E-2,-1.095207036E-1,2.022457123E-2
1.279014343E1,-1.238103211E-2,-1.089690626E-1,1.076507568E-2
1.280613464E1,-7.729530334E-3,-1.060964167E-1,1.796722412E-2
1.282206481E1,-7.728211582E-3,-1.197943091E-1,2.278327942E-2
1.283808654E1,-1.225107908E-2,-1.080279052E-1,3.943634033E-2
1.285404724E1,8.285045624E-6,-1.063385308E-1,5.137634277E-2
1.287000793E1,1.933283359E-2,-1.189093888E-1,3.219699860E-2
1.288602966E1,-1.125082374E-2,-1.150420904E-1,-1.563549042E-2
1.290192932E1,-2.295150608E-2,-9.174343944E-2,1.785373688E-2
1.291795104E1,1.086091995E-2,-1.003255546E-1,3.694915771E-2
1.293388122E1,-1.027191430E-2,-9.659135342E-2,1.056766510E-2
1.294987243E1,-1.476999372E-2,-9.643778205E-2,3.930091858E-2
1.296589416E1,-4.753656685E-3,-8.778440952E-2,3.217124939E-2
1.298188537E1,2.635508776E-3,-1.249830723E-1,3.221225739E-2
1.299787658E1,-2.063758671E-3,-9.589579701E-2,2.983188629E-2
1.301386779E1,1.250801980E-2,-1.001822054E-1,-1.370429993E-3
1.302982849E1,1.478631794E-2,-1.114751995E-1,2.480602264E-2
1.304572814E1,-2.095736563E-3,-9.183225036E-2,4.379558563E-2
1.306174987E1,7.097378373E-3,-1.004382968E-1,1.971149445E-2
1.307768005E1,-7.346279919E-3,-1.007221937E-1,3.158092499E-2
1.309370178E1,1.672059298E-4,-1.200806201E-1,3.405475616E-2
1.310963195E1,5.080901086E-3,-1.174239218E-1,4.364013672E-2
1.312559265E1,-7.005542517E-3,-1.141752601E-1,3.409671783E-2
1.314155334E1,4.766270518E-3,-1.019631326E-1,2.983093262E-3
1.315751403E1,1.151330769E-2,-1.174034476E-1,2.698135376E-2
1.317347473E1,-1.507587731E-2,-1.076376438E-1,4.135608673E-2
1.318946594E1,-3.159709275E-3,-8.575835824E-2,1.742744446E-2
1.320545715E1,-3.055632114E-3,-7.945233583E-2,3.424453735E-2
1.322141784E1,-6.746798754E-4,-8.172118664E-2,4.152393341E-2
1.323731750E1,-5.093485117E-3,-8.836767077E-2,2.487564087E-2
1.325330871E1,-7.560610771E-3,-9.594422579E-2,2.256011963E-2
1.326923889E1,-2.771154046E-3,-8.799237013E-2,1.061916351E-2
1.328519958E1,-3.390461206E-4,-9.533944726E-2,2.746582031E-2
1.330116027E1,-2.896748483E-3,-9.120899439E-2,6.326103210E-2
1.331705993E1,1.815721393E-3,-8.380565047E-2,4.881191254E-2
1.333308166E1,-3.036737442E-3,-8.788391948E-2,2.719879150E-2
1.334904235E1,-1.737190038E-2,-8.947581053E-2,3.441238403E-2
1.336500305E1,4.351854324E-3,-8.632466197E-2,2.965164185E-2
1.338099426E1,-7.703103125E-3,-8.687028289E-2,2.005386353E-2
1.339689392E1,-3.078639507E-3,-6.733953953E-2,3.673648834E-2
1.341288513E1,-2.013166249E-2,-8.754584193E-2,5.345916748E-2
1.342884582E1,3.816522658E-3,-7.374548912E-2,3.677082062E-2
1.344480651E1,1.500189304E-3,-7.680180669E-2,1.528930664E-2
1.346076721E1,-2.486492693E-2,-8.392575383E-2,4.172229767E-2
1.347669738E1,-3.223769367E-3,-7.982861996E-2,1.296329498E-2
1.349271911E1,1.609958708E-3,-8.992853761E-2,2.960777283E-2
1.350871032E1,6.388843060E-3,-9.344002604E-2,3.426074982E-2
1.352473205E1,6.390176713E-3,-8.370894194E-2,5.332851410E-2
1.354072326E1,-8.102901280E-3,-7.028585672E-2,4.850482941E-2
1.355671447E1,-5.787163973E-4,-7.957991958E-2,2.935886383E-2
1.357270568E1,-7.775858045E-3,-8.592814207E-2,2.460193634E-2
1.358866638E1,-1.483064145E-2,-7.573929429E-2,3.898906708E-2
1.360462707E1,-7.553271949E-3,-7.058161497E-2,2.463722229E-2
1.362061828E1,2.175718546E-3,-1.015197337E-1,3.661346436E-2
1.363654846E1,-1.206178963E-2,-7.789105177E-2,2.223491669E-2
1.365257018E1,-4.740193486E-3,-7.366496325E-2,5.094242096E-2
1.366846984E1,1.326873899E-4,-8.718764782E-2,1.506042480E-2
1.368436950E1,3.804042935E-4,-5.744257569E-2,1.030826569E-2
1.370039123E1,-2.166815102E-3,-8.574920893E-2,2.708625793E-2
1.371632141E1,-6.918884814E-3,-7.213348150E-2,3.184509277E-2
1.373231262E1,1.942770928E-2,-7.559844851E-2,2.701473236E-2
1.374824279E1,1.208847016E-2,-7.083120942E-2,2.941036224E-2
1.376414245E1,9.590938687E-3,-7.677558064E-2,3.424835205E-2
1.378016418E1,-7.179513574E-3,-7.537150383E-2,1.993656158E-2
1.379612487E1,4.774712026E-3,-7.206803560E-2,3.212928772E-3
1.381211608E1,-1.428531110E-2,-6.315162778E-2,2.233982086E-2
1.382807678E1,9.113550186E-5,-6.545713544E-2,4.140377045E-2
1.384400695E1,4.849575460E-3,-5.905658007E-2,3.888893127E-2
1.386002868E1,-9.556494653E-3,-5.842569470E-2,3.403377533E-2
1.387595886E1,7.151313126E-3,-6.276595592E-2,7.714271545E-3
1.389195007E1,-1.207797229E-2,-7.639843225E-2,1.731967926E-2
1.390791076E1,2.327978611E-3,-7.655200362E-2,1.492023468E-2
1.392387146E1,-4.942916334E-3,-6.801867485E-2,3.164005280E-2
1.393989318E1,-9.529322386E-3,-6.998965144E-2,2.677440643E-2
1.395579284E1,-1.659078151E-2,-5.502480268E-2,5.783081055E-2
1.397178405E1,-2.239458263E-3,-5.289313197E-2,3.148460388E-2
1.398774475E1,5.033344030E-3,-5.883932114E-2,5.193710327E-3
1.400367492E1,1.460875571E-2,-6.435102224E-2,1.243972778E-2
1.401966613E1,-4.344865680E-3,-6.442099810E-2,2.680015564E-2
1.403562683E1,-4.440873861E-3,-6.110522151E-2,1.716899872E-2
1.405161804E1,-1.152579486E-2,-7.101628184E-2,1.706409454E-2
1.406757873E1,-1.154967397E-2,-7.275211811E-2,3.606510162E-2
1.408350891E1,-9.019106627E-3,-6.412231922E-2,2.884578705E-2
1.409953064E1,-1.478537917E-3,-8.197265863E-2,4.564952850E-2
1.411546081E1,1.070678234E-2,-7.243037224E-2,1.554489136E-4
1.413145202E1,1.548450440E-2,-6.742006540E-2,1.931858063E-2
1.414741272E1,-2.763330936E-2,-7.830303907E-2,9.693145752E-3
1.416337341E1,-2.286080271E-2,-7.363966107E-2,3.114891052E-2
1.417936462E1,8.200824261E-3,-7.657849789E-2,5.498313904E-2
1.419532531E1,3.342740238E-3,-7.869324088E-2,2.369689941E-2
1.421128601E1,-4.004500806E-3,-6.292703748E-2,1.408672333E-2
1.422724670E1,3.778636456E-4,-4.133373499E-2,1.879501343E-2
1.424320739E1,5.069427192E-3,-4.916864634E-2,3.065967560E-2
1.425916809E1,9.639866650E-3,-6.423160434E-2,3.055191040E-2
1.427518981E1,-1.200209558E-2,-4.080608487E-2,3.284740448E-2
1.429118102E1,2.324484289E-3,-5.046316981E-2,2.797412872E-2
1.430708068E1,-5.918741226E-5,-3.590586782E-2,2.071475983E-2
1.432304138E1,-6.899237633E-5,-3.343543410E-2,6.373119354E-2
1.433903259E1,-1.689217240E-2,-3.045678139E-2,2.536392212E-2
1.435496276E1,2.116210759E-3,-3.661966324E-2,-1.017570496E-3
1.437095398E1,2.017460763E-3,-4.202169180E-2,3.248310089E-2
1.438685363E1,1.162540913E-2,-1.980319619E-2,2.987098694E-2
1.440284484E1,6.860539317E-3,-4.729744792E-2,5.361843109E-2
1.441877502E1,1.409506798E-2,-3.949058056E-2,3.664970398E-2
1.443479675E1,1.904815435E-3,-3.980186582E-2,6.043434143E-2
1.445075744E1,2.812500298E-2,-4.004704952E-2,3.401756287E-2
1.446671814E1,6.305918097E-3,-2.873489261E-2,1.237869263E-2
1.448273986E1,-1.805745065E-2,-1.464697719E-2,2.420139313E-2
1.449873107E1,-2.073573321E-2,-1.354312897E-2,1.923561096E-2
1.451472229E1,-1.855649054E-3,-1.510828733E-2,1.187133789E-2
1.453071350E1,9.940817952E-3,-3.863096237E-3,2.608203888E-2
1.454667419E1,-2.097807825E-3,-6.824791431E-3,4.029846191E-2
1.456257385E1,-2.360410988E-3,-1.701310277E-2,3.057670593E-2
1.457859558E1,4.622600973E-3,-5.792826414E-3,2.324771881E-2
1.459452575E1,-5.244351923E-3,-7.048130035E-3,2.309226990E-2
1.461048645E1,1.689210534E-3,-1.030188799E-2,4.689216614E-2
1.462644714E1,-1.045686007E-2,9.484663606E-3,4.679012299E-2
1.464240783E1,-8.373729885E-3,7.089614868E-3,2.758121490E-2
1.465842956E1,-3.811605275E-3,-7.554039359E-3,2.039527893E-2
1.467435974E1,-6.087012589E-3,-2.101698518E-2,1.323223114E-2
1.469035095E1,8.205540478E-3,3.199830651E-3,4.197025299E-2
1.470631164E1,-3.936119378E-3,-1.984113455E-2,1.799392700E-2
1.472224182E1,3.299288452E-3,3.663524985E-3,2.750015259E-2
1.473826354E1,8.900091052E-4,-1.477597654E-2,2.261352539E-2
1.475419372E1,-4.232734442E-3,-2.572059631E-3,6.081771851E-2
1.477018493E1,-2.034835517E-3,-1.211877167E-2,8.036613464E-3
1.478614563E1,-1.923847198E-2,-1.046435535E-2,3.185939789E-2
1.480210632E1,-1.436384022E-2,1.503324509E-2,3.891658783E-2
1.481812805E1,7.147662342E-3,1.521603763E-2,4.600048065E-2
1.483408874E1,-4.924982786E-3,1.847276092E-2,4.113006592E-2
1.485007995E1,2.051323652E-3,2.930551767E-3,1.951122284E-2
1.486604064E1,-8.400008082E-4,1.389671862E-2,3.381252289E-2
1.488194030E1,-1.788068563E-2,8.083358407E-3,3.853607178E-2
1.489793151E1,-6.099909544E-3,1.541137695E-2,2.891635895E-2
1.491386169E1,-1.582434028E-2,-8.917644620E-3,2.651596069E-2
1.492982238E1,-1.600354910E-3,2.449780703E-2,2.895736694E-2
1.494578308E1,8.867383003E-4,-3.653600812E-3,3.859329224E-2
1.496171325E1,-1.554049551E-3,1.448574662E-2,2.904510498E-2
1.497770446E1,-4.227519035E-3,5.494520068E-3,-6.901741028E-3
1.499366516E1,-1.398192346E-2,1.874335110E-2,4.809665680E-2
1.500965637E1,2.653056383E-2,2.154003084E-2,2.651214600E-2
1.502561706E1,-1.182162762E-2,1.997396350E-2,3.371143341E-2
1.504154724E1,-1.410636306E-2,1.765140891E-2,4.333591461E-2
1.505753845E1,-1.927495003E-3,1.223698258E-2,2.900409698E-2
1.507349914E1,-1.147194952E-2,2.222797275E-2,3.619384766E-2
1.508949035E1,-1.168699563E-2,3.326851130E-2,1.223564148E-2
1.510545104E1,-1.656331122E-2,1.290376484E-2,1.939582825E-2
1.512141174E1,-2.377267927E-2,2.230539918E-2,2.418136597E-2
1.513740295E1,-4.659585655E-3,2.262021601E-2,1.221561432E-2
1.515336364E1,9.660415351E-3,3.879943490E-2,9.811401367E-3
1.516935485E1,-1.203183085E-2,1.024982333E-2,2.413463593E-2
1.518531555E1,-2.557635307E-4,1.550172269E-2,5.757141113E-2
1.520124572E1,-1.727754623E-2,4.890817404E-2,4.072284698E-2
1.521726745E1,-3.038831055E-3,2.402998507E-2,3.347969055E-2
1.523319763E1,1.382451504E-2,1.326642931E-2,2.392482758E-2
1.524915832E1,9.188026190E-3,4.200148582E-2,3.837680817E-2
1.526511901E1,-1.374557614E-4,2.592800558E-2,-2.222061157E-3
1.528107971E1,-4.688426852E-3,2.076156437E-2,3.138160706E-2
1.529707092E1,4.987597466E-3,4.435953498E-2,2.423858643E-2
1.531303161E1,-2.325706184E-3,3.619679809E-2,4.816246033E-2
1.532902282E1,-2.371445298E-3,3.634709120E-2,2.901172638E-2
1.534498352E1,4.848435521E-3,4.345713556E-2,1.948165894E-2
1.536100524E1,-1.663383842E-2,6.260371208E-2,4.591560364E-2
1.537690490E1,-1.151032746E-2,3.413444757E-2,3.165149689E-2
1.539292663E1,-6.679497659E-3,7.081761956E-2,2.214241028E-2
1.540885681E1,-8.891254663E-3,6.058302522E-2,1.020812988E-2
1.542481750E1,-1.132503897E-2,5.899262428E-2,4.853343964E-2
1.544083923E1,5.643211305E-3,7.861739397E-2,3.656959534E-2
1.545683044E1,1.066409051E-3,5.095487833E-2,1.983165741E-2
1.547282165E1,-1.557212323E-2,5.097655952E-2,4.621887207E-2
1.548881286E1,-1.298568398E-2,6.578601897E-2,1.515674591E-2
1.550477356E1,-6.054565310E-4,6.612594426E-2,4.873275757E-2
1.552067321E1,1.153605431E-2,6.531709433E-2,2.003669739E-2
1.553669494E1,2.016678452E-3,6.492365897E-2,2.002716064E-2
1.555259460E1,-1.709565520E-2,6.805215776E-2,2.956581116E-2
1.556858581E1,-5.185820162E-3,5.913688242E-2,1.276683807E-2
1.558451599E1,-7.822841406E-3,7.032115757E-2,5.584716797E-2
1.560041564E1,1.370286942E-2,9.110945463E-2,4.391479492E-2
1.561643737E1,6.543464959E-3,8.791638911E-2,3.682231903E-2
1.563233703E1,-5.388721824E-3,7.580645382E-2,3.214263916E-2
1.564832824E1,-2.855934203E-3,7.925444841E-2,2.982902527E-2
1.566431945E1,-1.452302188E-2,9.690397978E-2,-8.460998535E-3
1.568034118E1,7.033213973E-3,8.605104685E-2,2.981567383E-2
1.569630188E1,-2.681873739E-3,9.836359322E-2,3.455638885E-2
1.571229309E1,-2.760216594E-4,1.172309145E-1,3.933811188E-2
1.572825378E1,9.285487235E-3,9.571678936E-2,4.897308350E-2
1.574427551E1,2.134516835E-3,9.089319408E-2,1.078033447E-2
1.576023620E1,1.417932659E-2,9.339460731E-2,4.202461243E-2
1.577625793E1,-1.192325354E-2,9.803558886E-2,-1.017570496E-3
1.579215759E1,-9.475886822E-3,1.021820307E-1,3.487873077E-2
1.580814880E1,-7.181309164E-3,9.265965223E-2,5.636978149E-2
1.582410949E1,-7.173188031E-3,1.148850769E-1,3.956794739E-2
1.584013122E1,7.273189723E-3,1.080857366E-1,3.718185425E-2
1.585612243E1,3.564432263E-4,1.104497910E-1,4.920864105E-2
1.587211364E1,-1.356545836E-2,1.051894277E-1,1.818752289E-2
1.588810485E1,3.474131227E-3,1.026813984E-1,2.309226990E-2
1.590406555E1,-1.073554158E-3,8.874996006E-2,2.076911926E-2
1.591999572E1,1.512736082E-3,9.605073929E-2,1.837539673E-2
1.593601745E1,1.558826864E-2,8.613775671E-2,3.512954712E-2
1.595191711E1,-1.601234078E-3,1.292614639E-1,4.231739044E-2
1.596787780E1,1.027957350E-2,1.132359058E-1,1.839637756E-2
1.598380798E1,-3.977023065E-3,1.200876683E-1,3.035736084E-2
1.599976867E1,-1.326327771E-2,1.050625741E-1,3.033733368E-2
1.601575988E1,-5.516335368E-3,9.765866399E-2,4.708385468E-2
1.603165954E1,-2.570904791E-3,8.947278559E-2,2.310943604E-2
1.604762023E1,-1.207441837E-2,1.014186144E-1,-8.964538574E-4
1.606358093E1,2.213090658E-3,9.132829309E-2,2.776050568E-2
1.607951110E1,9.303823113E-3,9.696857631E-2,5.645275116E-2
1.609550231E1,-1.454231888E-2,8.983536065E-2,3.963375092E-2
1.611143249E1,7.260806859E-3,9.597076476E-2,3.972530365E-2
1.612742370E1,-4.554577172E-3,9.901754558E-2,1.579761505E-2
1.614338439E1,7.724940777E-3,8.450253308E-2,3.015613556E-2
1.615931457E1,-8.845314384E-3,9.815639257E-2,3.252887726E-2
1.617530578E1,-8.655622602E-3,1.135718375E-1,1.573371887E-2
1.619120544E1,-6.200514734E-3,9.539054334E-2,6.118679047E-2
1.620719665E1,-6.051756442E-3,9.104235470E-2,2.767753601E-2
1.622315734E1,-1.060824841E-2,8.729827404E-2,3.009605408E-2
1.623911804E1,-6.789714098E-4,7.482664287E-2,3.253364563E-2
1.625510925E1,-5.196355283E-3,9.267136455E-2,3.016471863E-2
1.627100891E1,4.597455263E-3,8.949907124E-2,1.817131042E-2
1.628700012E1,6.917200983E-3,8.586889505E-2,3.968811035E-2
1.630293029E1,-1.475640386E-2,1.075684875E-1,4.208755493E-2
1.631892150E1,1.928187907E-3,8.908051252E-2,2.295207977E-2
1.633482116E1,-2.992227674E-4,9.173601866E-2,3.013992310E-2
1.635072082E1,4.747740924E-3,8.998703957E-2,3.973007202E-2
1.636671203E1,4.863075912E-3,8.285115659E-2,5.163955688E-2
1.638264221E1,2.252310514E-5,7.795941830E-2,3.242301941E-2
1.639860290E1,3.751367331E-5,9.167873859E-2,1.798248291E-2
1.641456359E1,-2.590566874E-5,7.632490993E-2,3.705310822E-2
1.643058532E1,2.327017486E-3,8.821827173E-2,2.981185913E-2
1.644654602E1,-5.036003888E-3,8.005315065E-2,3.457832336E-2
1.646244567E1,-9.980283678E-3,6.747527421E-2,4.653644562E-2
1.647837585E1,1.868347079E-2,6.403432786E-2,2.017593384E-2
1.649436706E1,-3.109619021E-3,8.169557154E-2,2.972030640E-2
1.651026672E1,-1.273972541E-2,7.903459668E-2,2.965831757E-2
1.652625793E1,-5.788065493E-3,7.135286927E-2,2.480506897E-2
1.654218810E1,1.245811582E-3,6.234399974E-2,2.237033844E-2
1.655814880E1,-1.198604703E-3,5.692672729E-2,1.517391205E-2
1.657414001E1,-6.063491106E-3,5.815233290E-2,1.275348663E-2
1.659003967E1,1.075565815E-3,4.589018226E-2,1.748180389E-2
1.660603088E1,1.279621571E-2,6.148509681E-2,4.853057861E-2
1.662193054E1,-6.631553173E-3,6.985381246E-2,2.451229095E-2
1.663783020E1,-4.322648048E-3,4.346248507E-2,1.248931885E-2
1.665385192E1,-6.867758930E-3,6.246425211E-2,5.558300018E-2
1.666978210E1,2.782471478E-3,4.698748887E-2,2.209091187E-2
1.668580383E1,-1.936636865E-3,4.861506820E-2,1.973152161E-2
1.670173400E1,2.834074199E-3,4.371117055E-2,1.972961426E-2
1.671769470E1,7.483519614E-3,5.332417786E-2,3.165054321E-2
1.673368591E1,1.223625243E-2,3.161425889E-2,2.201938629E-2
1.674958557E1,1.680099964E-2,6.850397587E-2,5.551052094E-2
1.676557678E1,1.680593193E-2,5.395023525E-2,1.241111755E-2
1.678150695E1,-2.428121865E-3,4.384258389E-2,4.113101959E-2
1.679740661E1,4.832766950E-3,3.527602553E-2,2.439212799E-2
1.681342834E1,-9.569756687E-3,3.984171152E-2,7.628440857E-3
1.682935852E1,-1.441776752E-2,3.486764431E-2,2.677822113E-2
1.684534973E1,-1.446295530E-2,3.717695177E-2,4.353713989E-2
1.686131042E1,7.274888456E-3,3.936694562E-2,4.113578796E-2
1.687721008E1,1.939833164E-4,2.623394132E-2,2.914047241E-2
1.689323181E1,1.247674227E-4,3.215968609E-2,5.305671692E-2
1.690913146E1,2.432197332E-3,2.526882291E-2,4.109191895E-2
1.692509216E1,2.459704876E-3,3.865312040E-2,1.957416534E-2
1.694105285E1,1.426856220E-2,4.082237184E-2,1.243877411E-2
1.695701355E1,-2.583712339E-4,1.322478056E-2,2.682971954E-2
1.697300476E1,-2.668045461E-3,2.529150248E-2,3.880310059E-2
1.698890441E1,-5.087360740E-3,2.159477770E-2,1.483345032E-2
1.700489562E1,-1.006432623E-2,8.485063910E-3,3.635978699E-2
1.702085632E1,4.217274487E-3,4.458443820E-2,7.467174530E-2
1.703675598E1,9.297572076E-3,1.836536825E-2,1.486682892E-2
1.705277770E1,2.081885934E-3,2.743153274E-2,3.884983063E-2
1.706867736E1,2.346891910E-2,1.084177196E-2,1.257133484E-2
1.708463806E1,1.843672991E-2,2.827666700E-2,3.413677216E-2
1.710059875E1,-1.521401107E-2,3.507339954E-2,2.455234528E-2
1.711658996E1,-2.265937626E-2,4.411786795E-2,2.454471588E-2
1.713248962E1,-1.066200435E-2,2.317328751E-2,3.652763367E-2
1.714841980E1,-8.279450238E-3,3.567643464E-2,1.259803772E-2
1.716441101E1,-3.459908068E-3,3.527960181E-2,3.653049469E-2
1.718031066E1,-1.322601736E-2,1.499997079E-2,5.326747894E-2
1.719624084E1,3.394447267E-3,3.860031068E-2,4.607868195E-2
1.721223205E1,-1.321674138E-2,2.112071216E-2,2.935504913E-2
1.722813171E1,3.558620811E-3,4.750725627E-2,4.137897491E-2
1.724412292E1,2.040349692E-2,1.690280437E-2,3.426170349E-2
1.726002258E1,-5.862690508E-3,4.069031775E-2,1.515769958E-2
1.727598327E1,1.102716476E-2,1.049754024E-2,1.038837433E-2
1.729197448E1,1.416034997E-3,1.459059119E-2,2.952671051E-2
1.730790466E1,6.074987352E-3,2.560505271E-2,3.908348083E-2
1.732392639E1,5.979947746E-3,1.856806874E-2,7.962226868E-3
1.733982605E1,6.134599447E-3,1.607766747E-2,2.716732025E-2
1.735578674E1,-5.638822913E-3,2.078434825E-2,1.285266876E-2
1.737177795E1,-1.045851409E-2,1.481622458E-2,6.315994263E-2
1.738767761E1,-8.688196540E-4,2.777363360E-2,3.684616089E-2
1.740363830E1,-7.939763367E-3,1.207718253E-2,3.687000275E-2
1.741959899E1,1.707918942E-3,2.848134935E-2,2.733993530E-2
1.743555969E1,1.131424308E-2,3.108134866E-2,4.176712036E-2
1.745148986E1,-3.003440797E-3,2.156016231E-2,1.788330078E-2
1.746745056E1,9.120129049E-3,1.909539104E-2,1.793861389E-2
1.748338073E1,-2.716608346E-3,2.186222374E-2,5.391788483E-2
1.749934143E1,7.035829127E-3,1.338359714E-2,2.527236938E-2
1.751527160E1,-7.128380239E-3,1.032075286E-2,2.776813507E-2
1.753117126E1,-1.910160482E-2,1.421064138E-3,4.221153259E-2
1.754713195E1,4.874110222E-3,-1.183164120E-2,2.548122406E-2
1.756315368E1,-9.658388793E-3,1.658026874E-2,4.941749573E-2
1.757908386E1,-1.209128648E-2,1.865942776E-2,3.504467010E-2
1.759504455E1,-1.029297709E-4,1.790611446E-2,4.466247559E-2
1.761103576E1,1.182705164E-2,1.438683271E-2,4.715251923E-2
1.762693542E1,-9.660325944E-3,-1.642197371E-3,4.011726379E-2
1.764292663E1,-2.134285867E-3,-1.011872292E-2,2.830219269E-2
1.765888732E1,1.233598590E-2,4.321157932E-3,9.283065796E-3
1.767478698E1,-1.970395446E-3,1.888197660E-2,2.132701874E-2
1.769074768E1,5.120649934E-3,3.220230341E-3,5.008888245E-2
1.770676940E1,-1.901219785E-2,-9.611696005E-3,6.210517883E-2
1.772276062E1,-1.164035499E-2,-1.357722282E-2,2.628326416E-2
1.773875183E1,1.005458832E-2,5.509853363E-4,5.514526367E-2
1.775471252E1,-4.008859396E-3,-1.138016582E-2,1.937103271E-2
1.777070373E1,-1.839046925E-2,8.917182684E-3,3.863143921E-2
1.778666442E1,7.843226194E-3,1.003953815E-2,5.549907684E-2
1.780265564E1,1.041362435E-2,-3.958076239E-3,1.974201202E-2
1.781861633E1,3.244847059E-3,-7.910758257E-3,2.231311798E-2
1.783454650E1,3.326371312E-3,-9.869635105E-4,2.006244659E-2
1.785053772E1,-3.886960447E-3,-3.481239080E-3,4.168415070E-2
1.786649841E1,1.034767926E-2,9.605586529E-3,2.975177765E-2
1.788248962E1,-1.773186028E-3,-1.529672742E-2,2.261734009E-2
1.789845031E1,-1.728095114E-3,-1.045790315E-2,1.311969757E-2
1.791434997E1,1.272582263E-2,-1.886835694E-2,3.239059448E-2
1.793037170E1,3.142446280E-3,-1.331138611E-2,3.489017487E-2
1.794627136E1,-1.365786791E-2,-1.552736759E-2,4.216003418E-2
1.796223205E1,-6.575495005E-3,-1.864841580E-2,3.503513336E-2
1.797819274E1,-1.387000084E-2,-1.012846828E-2,1.353549957E-2
1.799412292E1,-1.390894502E-2,-3.496527672E-3,4.951095581E-2
1.801011413E1,-4.521787167E-3,-2.654400468E-2,2.089595795E-2
1.802604431E1,7.524281740E-3,-5.738347769E-3,1.624774933E-2
1.804200500E1,-2.365642786E-2,-1.854285598E-2,3.314781189E-2
1.805796569E1,-4.418708384E-3,-1.993000507E-2,3.087329865E-2
1.807392639E1,-7.008597255E-3,-2.449738979E-2,1.181602478E-2
1.808991760E1,-1.458263397E-2,-2.821916342E-2,3.101253510E-2
1.810581726E1,2.225175500E-3,-1.818442345E-2,3.821277618E-2
1.812177795E1,4.464201629E-3,-1.434236765E-2,4.065990448E-2
1.813773864E1,-2.197186649E-2,-1.638475060E-2,3.597354889E-2
1.815366882E1,-4.867389798E-4,-2.919825912E-2,4.330253601E-2
1.816969055E1,-1.011568308E-2,-3.186699748E-2,4.347133636E-2
1.818562072E1,-5.312189460E-3,-3.650075197E-2,3.168678284E-2
1.820161193E1,1.406755298E-2,-3.108990192E-2,1.992130280E-2
1.821757263E1,-2.266466618E-4,-3.887441754E-2,2.008247375E-2
1.823353332E1,-2.984330058E-4,-2.716812491E-2,2.016735077E-2
1.824952453E1,6.842151284E-3,-3.366100788E-2,2.498245239E-2
1.826542419E1,4.180021584E-3,-1.231005788E-2,1.300716400E-2
1.828138488E1,-7.744327188E-3,-2.342295647E-2,3.698253632E-2
1.829734558E1,4.181757569E-3,-3.273981810E-2,4.187583923E-2
1.831327575E1,-5.285903811E-3,-4.578590393E-3,2.288913727E-2
1.832929748E1,9.005963802E-3,-3.886601329E-2,2.784061432E-2
1.834519714E1,-1.745209098E-2,-3.023016453E-2,3.987216949E-2
1.836118835E1,-8.022159338E-3,-2.994745970E-2,1.604080200E-2
1.837711852E1,-7.660686970E-4,-3.183528781E-2,1.845550537E-2
1.839301818E1,-2.219540626E-2,-3.638643026E-2,3.043460846E-2
1.840903991E1,-1.265662909E-2,-3.830549121E-2,6.511688232E-3
1.842497009E1,-1.259405166E-2,-3.556731343E-2,2.807331085E-2
1.844096130E1,-1.014624536E-2,-3.643092513E-2,4.250049591E-2
1.845692199E1,-7.679261267E-3,-3.263753653E-2,3.786849976E-2
1.847288269E1,-2.859994769E-3,-3.254646063E-2,2.370834351E-2
1.848890441E1,-7.544986904E-3,-3.989797831E-2,2.869033813E-2
1.850483459E1,9.200938046E-3,-5.456265807E-2,9.627342224E-3
1.852076477E1,-1.017659158E-2,-3.931751847E-2,1.425075531E-2
1.853669494E1,-1.040598750E-2,-4.485666752E-2,3.796195984E-2
1.855268615E1,-1.285904646E-2,-5.122920871E-2,4.737472534E-2
1.856864685E1,1.353932917E-2,-5.221000314E-2,2.339076996E-2
1.858466857E1,-7.459744811E-4,-6.364044547E-2,2.580738068E-2
1.860062927E1,-1.275322586E-2,-5.204463005E-2,3.536891937E-2
1.861658996E1,-2.244945616E-2,-5.264863372E-2,4.013347626E-2
1.863248962E1,-5.690157413E-3,-6.280186772E-2,-5.922317505E-4
1.864851135E1,-1.045209169E-2,-4.288348556E-2,1.849460602E-2
1.866444152E1,-3.066934645E-3,-6.922537088E-2,3.754711151E-2
1.868043273E1,-1.705764979E-2,-8.146736026E-2,2.067565918E-2
1.869633239E1,-7.471658289E-3,-7.142010331E-2,6.231307983E-3
1.871229309E1,-9.814150631E-3,-6.495860219E-2,3.732681274E-2
1.872828430E1,-4.884265363E-3,-6.623756886E-2,3.018856049E-2
1.874418396E1,-2.335809171E-3,-7.404449582E-2,3.504657745E-2
1.876014465E1,-2.138352394E-2,-8.015865088E-2,3.963470459E-3
1.877610534E1,-9.446509182E-3,-6.680873036E-2,3.265285492E-2
1.879200500E1,-1.425991952E-2,-9.333401918E-2,-9.698867798E-4
1.880802673E1,-4.660360515E-3,-8.899563551E-2,4.679870605E-2
1.882392639E1,7.208481431E-3,-7.827633619E-2,8.984661102E-2
1.883988708E1,7.485106587E-3,-8.050131798E-2,8.506107330E-2
1.885581726E1,-2.586851269E-2,-7.629895210E-2,1.330566406E-2
1.887171691E1,-8.783012629E-3,-1.087223291E-1,2.292346954E-2
1.888773864E1,-1.358511299E-2,-9.219464660E-2,3.727912903E-2
1.890363830E1,-4.110753536E-3,-8.840107918E-2,3.245162964E-2
1.891962951E1,-1.387020946E-2,-7.963827252E-2,4.439258575E-2
1.893559020E1,-1.368109882E-2,-9.070774913E-2,1.809024811E-2
1.895152038E1,-1.617968082E-3,-7.006165385E-2,3.490829468E-2
1.896754211E1,-3.931432962E-3,-9.277799726E-2,1.340866089E-2
1.898347228E1,5.850248039E-3,-7.086214423E-2,1.342201233E-2
1.899946350E1,-1.100498438E-2,-7.113862038E-2,3.834724426E-3
1.901542419E1,-2.536726743E-2,-1.049652100E-1,2.536964417E-2
1.903135437E1,-6.129421294E-3,-9.555369616E-2,2.057456970E-2
1.904737609E1,-6.017118692E-3,-8.612173796E-2,4.211521149E-2
1.906330627E1,-5.867280066E-3,-6.629967690E-2,3.256320953E-2
1.907929748E1,8.696675301E-3,-9.407639503E-2,3.499412537E-2
1.909525817E1,-1.274736971E-2,-9.881028533E-2,3.738880157E-2
1.911121887E1,6.449960172E-3,-7.829007506E-2,1.101016998E-2
1.912724060E1,-1.028377563E-2,-1.010963321E-1,1.095962524E-2
1.914320129E1,-1.980917156E-2,-8.768862486E-2,3.007507324E-2
1.915919250E1,-1.973544806E-2,-8.556103706E-2,3.485107422E-2
1.917515319E1,1.176302880E-2,-9.684187174E-2,3.749847412E-3
1.919111389E1,7.060065866E-3,-9.296882153E-2,1.817417145E-2
1.920710510E1,2.334378660E-3,-9.255000949E-2,2.297782898E-2
1.922300476E1,-4.830248654E-3,-8.842945099E-2,3.971099854E-2
1.923899597E1,-1.193734258E-2,-7.864221931E-2,3.004550934E-2
1.925495666E1,-9.655080736E-3,-8.508369327E-2,5.382728577E-2
1.927085632E1,-7.374517620E-3,-6.562787294E-2,2.013301849E-2
1.928684753E1,9.420543909E-3,-8.829921484E-2,4.403018951E-2
1.930277770E1,-7.268704474E-3,-6.893858314E-2,2.727794647E-2
1.931876892E1,-2.343013883E-3,-7.328066230E-2,2.011108398E-2
1.933472961E1,7.192447782E-3,-9.173774719E-2,1.765060425E-2
1.935062927E1,-2.176012099E-2,-8.525985479E-2,3.677940369E-2
1.936665100E1,2.064332366E-3,-9.860453010E-2,1.757335663E-2
1.938255065E1,-2.764724195E-3,-8.814382553E-2,1.512241364E-2
1.939854187E1,-9.988725185E-3,-7.799720764E-2,2.462959290E-2
1.941450256E1,-2.798251808E-3,-9.108439088E-2,3.655624390E-2
1.943043273E1,-9.915709496E-3,-8.334943652E-2,2.221202850E-2
1.944645446E1,-7.325708866E-3,-9.350863099E-2,3.903961182E-2
1.946238464E1,-9.670674801E-3,-1.029578447E-1,2.707195282E-2
1.947837585E1,7.604807615E-5,-9.431448579E-2,2.464008331E-2
1.949430602E1,-1.426824927E-2,-7.841801643E-2,2.690887451E-2
1.951026672E1,-2.395734191E-3,-9.034752846E-2,3.151893616E-2
1.952622741E1,7.607042789E-5,-7.704392076E-2,4.344940186E-2
1.954218810E1,-1.268163323E-4,-8.429577947E-2,4.335880280E-2
1.955820983E1,-9.522341192E-3,-8.526462317E-2,-2.079963684E-3
1.957410949E1,-1.401484758E-2,-1.077844501E-1,2.430629730E-2
1.959003967E1,-4.390321672E-3,-1.088513136E-1,7.505416870E-3
1.960600036E1,-9.495094419E-3,-9.191969037E-2,2.170372009E-2
1.962193054E1,-2.597533166E-3,-1.112718880E-1,3.588771820E-2
1.963792175E1,2.261690795E-3,-1.061369479E-1,4.538917542E-2
1.965385192E1,-7.237732410E-3,-9.764197469E-2,2.149391174E-2
1.966984314E1,-4.659280181E-3,-9.773731232E-2,3.115367889E-2
1.968577331E1,7.548384368E-3,-1.140102446E-1,1.440906525E-2
1.970179504E1,-4.596076906E-3,-1.177268624E-1,2.633285522E-2
1.971775573E1,-1.212442666E-2,-1.054872274E-1,4.062461853E-2
1.973368591E1,-9.902648628E-3,-1.030654609E-1,5.011749268E-2
1.974967712E1,1.983448863E-3,-9.928798676E-2,5.965900421E-2
1.976560730E1,-9.974800050E-3,-1.019433141E-1,1.663970947E-2
1.978162902E1,-1.466454566E-2,-1.170987785E-1,2.388095856E-2
1.979755920E1,-1.455127448E-2,-1.086947620E-1,3.829002380E-2
1.981355041E1,-1.676557958E-2,-8.383387327E-2,2.408027649E-3
1.982957214E1,9.783253074E-3,-9.315839410E-2,3.123188019E-2
1.984556335E1,-6.823219359E-3,-9.556779265E-2,1.198863983E-2
1.986155456E1,-4.228800535E-3,-8.352059126E-2,4.550838470E-2
1.987748474E1,5.546011031E-3,-9.256899357E-2,9.700775146E-3
1.989347595E1,-6.443552673E-3,-9.060195088E-2,4.568672180E-2
1.990946716E1,8.159756660E-3,-9.543675184E-2,1.225280762E-2
1.992539733E1,-1.820630580E-2,-8.444091678E-2,4.821968079E-2
1.994141906E1,9.155720472E-4,-7.832083106E-2,3.151035309E-2
1.995741027E1,-8.571796119E-3,-6.613671780E-2,3.879070282E-2
1.997334045E1,-8.428767323E-3,-6.979185343E-2,3.174114227E-2
1.998927062E1,6.007216871E-3,-6.307476759E-2,1.514816284E-2
2.000523132E1,-2.251872420E-2,-7.293811440E-2,2.489757538E-2
2.002116149E1,-1.030601561E-2,-7.862833142E-2,3.223037720E-2
2.003718322E1,-3.016777337E-3,-5.707114935E-2,2.993106842E-2
2.005311340E1,6.410457194E-3,-5.859938264E-2,3.236103058E-2
2.006910461E1,-5.769379437E-3,-5.583998561E-2,3.477287292E-2
2.008503478E1,1.468084753E-3,-3.327414393E-2,2.523612976E-2
2.010093444E1,-1.015252620E-2,-6.449267268E-2,3.011322021E-2
2.011692565E1,-5.177825689E-3,-5.678644776E-2,4.938220978E-2
2.013285583E1,-5.049869418E-3,-6.399780512E-2,1.117038727E-2
2.014875549E1,-7.186278701E-3,-4.774835706E-2,5.194568634E-2
2.016477722E1,-4.650771618E-3,-6.077155471E-2,4.002952576E-2
2.018070739E1,-4.565663636E-3,-4.630810022E-2,2.327251434E-2
2.019669860E1,2.448000014E-3,-4.189369082E-2,3.283596039E-2
2.021265930E1,4.783928394E-3,-4.205474257E-2,4.958915710E-2
2.022865051E1,1.808926463E-4,-4.846864939E-2,3.764724731E-2
2.024464172E1,7.624901831E-3,-4.674032331E-2,2.095699310E-2
2.026054138E1,-9.117648005E-3,-4.261863232E-2,1.863384247E-2
2.027650207E1,5.230531096E-4,-4.229071736E-2,2.343559265E-2
2.029246276E1,-1.148492098E-2,-3.868320584E-2,3.057003021E-2
2.030836242E1,7.496483624E-3,-3.531622887E-2,4.487800598E-2
2.032438415E1,-2.111069858E-3,-4.771184921E-2,3.528404236E-2
2.034031433E1,-9.193964303E-3,-2.523282170E-2,4.250335693E-2
2.035630554E1,-2.009749413E-3,-1.818662882E-2,1.147365570E-2
2.037226623E1,1.473893225E-2,-4.388588667E-2,2.107620239E-2
2.038822692E1,2.656467259E-3,-3.032225370E-2,4.508590698E-2
2.040424865E1,-2.053476870E-3,-3.582385182E-2,3.557872772E-2
2.042020935E1,-4.246801138E-3,-4.111349583E-2,4.044532776E-2
2.043617004E1,1.979959756E-2,-3.980758786E-2,3.571128845E-2
2.045210022E1,5.289778113E-3,-3.915277123E-2,2.220153809E-3
2.046799987E1,-4.500277340E-3,-3.673723340E-2,2.377223969E-2
2.048402160E1,-4.624143243E-3,-3.025859594E-2,5.726242065E-2
2.049992126E1,-7.036767900E-3,-3.457143903E-2,3.094673157E-2
2.051594299E1,-6.862714887E-3,-2.377045155E-2,4.057407379E-2
2.053187316E1,7.673338056E-3,-2.287921309E-2,2.385044098E-2
2.054777282E1,2.882815897E-3,-2.532970905E-2,3.103065491E-2
2.056379455E1,-9.003788233E-3,-2.763539553E-2,3.342723846E-2
2.057972473E1,1.014021039E-2,-2.773922682E-2,3.821086884E-2
2.059571594E1,-9.000532329E-3,-3.702613711E-2,2.146434784E-2
2.061167663E1,-1.893155277E-3,-1.250237226E-2,3.824901581E-2
2.062757629E1,-1.842446625E-3,-3.310859203E-2,3.110599518E-2
2.064359802E1,-1.925051212E-3,-2.249979973E-2,4.551696777E-2
2.065949768E1,-4.206530750E-3,-3.121706843E-2,2.161121368E-2
2.067548889E1,5.434997380E-3,-1.207745075E-2,2.639770508E-2
2.069141906E1,-6.404854357E-3,6.476491690E-3,3.594779968E-2
2.070731872E1,3.210410476E-3,-1.103451848E-2,4.788494110E-2
2.072334045E1,7.970921695E-3,-3.609478474E-3,2.874183655E-2
2.073924011E1,-1.623250544E-3,8.255243301E-5,1.682758331E-2
2.075520080E1,-1.589499414E-3,-2.730411291E-2,2.519607544E-3
2.077119201E1,3.380052745E-3,-1.960641146E-2,2.169418335E-2
2.078712219E1,1.040252298E-2,-4.658520222E-3,1.922321320E-2
2.080311340E1,-8.992925286E-3,-1.994267106E-2,6.696796417E-2
2.081904357E1,2.789281309E-3,-3.143340349E-3,3.095626831E-2
2.083506530E1,4.500001669E-4,-2.300187945E-2,4.768562317E-2
2.085099548E1,-8.785784245E-3,-5.685895681E-3,7.002830505E-3
2.086695617E1,1.547264308E-2,-1.847019792E-2,1.893711090E-2
2.088288635E1,3.300100565E-3,7.981806993E-3,2.842044830E-2
2.089881652E1,6.880015135E-4,-8.379578590E-3,2.594470978E-2
2.091480773E1,1.251985133E-2,5.653470755E-3,2.593231201E-2
2.093073791E1,2.910457551E-3,1.870393753E-3,4.034042358E-2
2.094669860E1,-1.365388185E-2,-1.345786452E-2,3.082084656E-2
2.096262878E1,-1.130533218E-2,-3.451585770E-3,3.323364258E-2
2.097855896E1,-1.731067896E-3,3.158032894E-3,2.602672577E-2
2.099448913E1,-1.838430762E-3,-1.661852002E-2,4.276084900E-2
2.101048034E1,-6.638906896E-3,-9.295433760E-3,5.713272095E-2
2.102641052E1,-1.668199897E-3,-1.131036878E-2,3.559875488E-2
2.104243225E1,5.658335984E-3,-1.092699170E-2,3.561306000E-2
2.105836242E1,2.724686265E-2,-1.823079586E-2,2.363586426E-2
2.107435363E1,-6.513200700E-3,-2.949380875E-2,2.117443085E-2
2.109028381E1,-6.665438414E-3,-5.899250507E-3,3.303146362E-2
2.110624450E1,7.548682392E-3,-4.890531301E-3,4.963684082E-2
2.112223571E1,1.461319625E-2,-4.810690880E-4,3.276348114E-2
2.113813537E1,1.238304377E-2,-1.291483641E-3,3.512382507E-2
2.115409606E1,-6.720960140E-3,3.020673990E-3,2.792072296E-2
2.117005676E1,7.724106312E-3,-1.056283712E-2,3.024864197E-2
2.118598693E1,1.001853496E-2,2.356469631E-3,3.967094421E-2
2.120200866E1,2.628490329E-3,-7.862508297E-3,2.509021759E-2
2.121793884E1,1.449641585E-2,-2.230972052E-3,2.962970734E-2
2.123393005E1,-7.109336555E-3,-7.800936699E-3,4.856777191E-2
2.124982971E1,-4.545696080E-3,-2.149939537E-3,6.278133392E-2
2.126579040E1,5.298584700E-3,-5.594551563E-3,2.682495117E-2
2.128175109E1,7.970228791E-3,-1.956519485E-2,2.444267273E-2
2.129765075E1,1.543781161E-2,-1.788973808E-3,3.156948090E-2
2.131364196E1,9.754747152E-4,-1.085627079E-2,1.465034485E-2
2.132960266E1,-1.367791742E-2,4.104942083E-3,5.032157898E-2
2.134553283E1,-1.712374389E-3,2.332639694E-2,9.361267090E-3
2.136155456E1,-6.539039314E-3,-2.153515816E-4,6.179046631E-2
2.137745422E1,-3.027944267E-2,2.830624580E-4,4.718971252E-2
2.139344543E1,3.320202231E-3,1.497849822E-2,2.779960632E-2
2.140940612E1,8.070245385E-4,-1.128643751E-2,2.756118774E-2
2.142530578E1,-1.625634730E-3,9.174704552E-3,4.420566559E-2
2.144132751E1,1.034803689E-2,1.465272903E-2,4.391765594E-2
2.145725769E1,-8.991062641E-3,2.520215511E-2,3.900909424E-2
2.147324890E1,5.375660956E-3,3.421425819E-3,2.456092834E-2
2.148920959E1,1.250872016E-2,1.677554846E-2,2.445507050E-2
2.150513977E1,9.912207723E-3,5.304545164E-3,3.390216827E-2
2.152116149E1,2.826780081E-3,1.726806164E-2,1.460170746E-2
2.153706115E1,4.850000143E-3,3.861010075E-2,4.318714142E-2
2.155302185E1,-2.331219614E-3,3.407990932E-2,4.784202576E-2
2.156898254E1,-7.068954408E-3,2.487984300E-2,1.898384094E-2
2.158488220E1,-7.022812963E-3,1.069724560E-3,4.279327393E-2
2.160090393E1,-4.724517465E-3,2.935937047E-2,3.067874908E-2
2.161683410E1,-7.315076888E-3,2.683737874E-2,4.251575470E-2
2.163279480E1,1.192620397E-2,2.837936580E-2,5.918693542E-2
2.164875549E1,-1.192631572E-2,2.004227042E-2,6.394386292E-2
2.166468566E1,-7.079824805E-3,2.194052935E-2,3.519916534E-2
2.168070739E1,-6.971724331E-3,1.352617145E-2,3.277015686E-2
2.169660705E1,4.953727126E-3,1.790738106E-2,3.269767761E-2
2.171259826E1,1.927244663E-2,1.068636775E-2,2.299499512E-2
2.172855896E1,-9.554922581E-3,3.806507587E-2,2.284049988E-2
2.174445861E1,9.591609240E-3,7.135182619E-3,2.745628357E-2
2.176048034E1,1.887442917E-2,3.436782956E-2,6.082630157E-2
2.177641052E1,6.662473083E-3,3.203709424E-2,3.677558899E-2
2.179240173E1,-6.272122264E-4,3.166338801E-2,4.868507385E-2
2.180836242E1,-5.321554840E-3,3.109961748E-3,2.953433990E-2
2.182432312E1,-1.227002591E-2,2.531659603E-2,2.475833893E-2
2.184031433E1,1.659175009E-2,2.834671736E-2,4.392528534E-2
2.185624450E1,2.359732985E-3,3.107149899E-2,2.477741241E-2
2.187223571E1,7.167972624E-3,2.262172103E-2,3.911304474E-2
2.188813537E1,7.063232362E-3,3.010226786E-2,4.385375977E-2
2.190412658E1,7.068149745E-3,3.469488025E-2,5.337238312E-2
2.192005676E1,1.179860532E-2,2.760833502E-2,3.895568848E-2
2.193595642E1,-2.527907491E-3,2.410684526E-2,5.090141296E-2
2.195194763E1,-2.575151622E-3,3.138634562E-2,5.329895020E-2
2.196787780E1,-5.241483450E-5,2.421328425E-2,2.217292786E-2
2.198377746E1,-1.187618077E-2,2.048376203E-2,2.692985535E-2
2.199979919E1,4.646204412E-3,2.915544808E-2,2.925491333E-2
2.201572937E1,1.164087653E-2,4.461725056E-2,2.678298950E-2
2.203172058E1,6.797917187E-3,2.993620932E-2,4.114151001E-2
2.204765075E1,-9.817905724E-3,5.515064299E-2,4.356193542E-2
2.206364196E1,4.650302231E-3,3.172162175E-2,4.601669312E-2
2.207960266E1,9.492106736E-3,3.988362849E-2,3.890895844E-2
2.209562438E1,-4.911676049E-3,4.759551585E-2,4.855155945E-2
2.211158508E1,-1.439642906E-2,7.071875036E-2,3.421974182E-2
2.212751525E1,-7.136151195E-3,5.405446887E-2,4.140377045E-2
2.214347595E1,-1.219478995E-2,3.992286325E-2,5.338287354E-2
2.215946716E1,7.000170648E-3,7.314836979E-2,5.576992035E-2
2.217536682E1,-7.307298481E-3,4.574237764E-2,4.143428802E-2
2.219135803E1,-9.574331343E-3,6.778648496E-2,4.394912720E-2
2.220725769E1,7.213637233E-3,6.800022721E-2,2.724933624E-2
2.222315734E1,-7.028259337E-3,6.566567719E-2,5.702972412E-3
2.223914856E1,-4.556789994E-3,6.422241032E-2,2.482223511E-2
2.225510925E1,-4.458986223E-3,8.129248023E-2,2.716636658E-2
2.227110046E1,2.941332757E-3,8.932417631E-2,2.712726593E-2
2.228706115E1,-6.670564413E-3,7.633674145E-2,5.583477020E-2
2.230302185E1,5.040764809E-4,8.404688537E-2,4.142761230E-2
2.231904357E1,-4.480257630E-3,8.298324049E-2,5.337619781E-2
2.233497375E1,2.422169596E-2,7.641294599E-2,2.944946289E-2
2.235096496E1,5.220860243E-3,7.945923507E-2,3.430557251E-2
2.236692565E1,-1.138847321E-2,8.031703532E-2,2.959060669E-2
2.238282531E1,5.431003869E-3,9.204132855E-2,1.766872406E-2
2.239881652E1,-1.146393269E-2,8.560390770E-2,3.199768066E-2
2.241474670E1,3.058269620E-3,8.823671937E-2,2.476310730E-2
2.243073791E1,1.479573548E-2,8.256512880E-2,4.868698120E-2
2.244669860E1,1.965684444E-2,8.395445347E-2,4.632377625E-2
2.246262878E1,1.242046058E-2,1.015760452E-1,2.964115143E-2
2.247865051E1,-4.088826478E-3,9.791539609E-2,8.173942566E-3
2.249455017E1,6.702467799E-4,9.966482222E-2,2.018737793E-2
2.251051086E1,1.016236842E-2,9.484183788E-2,2.258110046E-2
2.252644104E1,-6.739713252E-3,8.562314510E-2,2.492904663E-2
2.254237121E1,1.456619799E-2,1.014770567E-1,2.012157440E-2
2.255833190E1,7.465958595E-3,1.010820270E-1,2.968788147E-2
2.257423156E1,5.058251321E-3,8.979114890E-2,3.449344635E-2
2.259022277E1,7.501892745E-3,9.864252806E-2,2.740669250E-2
2.260618347E1,-8.900240064E-3,7.839518785E-2,2.749252319E-2
2.262208313E1,-1.871071756E-3,1.034640372E-1,2.273464203E-2
2.263810485E1,5.369722843E-3,9.400008619E-2,1.788902283E-2
2.265403503E1,-1.133948565E-2,9.615515172E-2,4.900836945E-2
2.266999572E1,7.798738778E-3,9.893061221E-2,4.422855377E-2
2.268595642E1,-8.798576891E-3,9.215365350E-2,2.747726440E-2
2.270191711E1,1.251216233E-2,1.011653841E-1,4.661941528E-2
2.271787780E1,-9.048014879E-3,1.084298491E-1,3.465175629E-2
2.273377746E1,7.725439966E-3,8.712863922E-2,2.508068085E-2
2.274973815E1,-1.369721442E-2,9.397001565E-2,4.182910919E-2
2.276569885E1,7.628574967E-4,1.096718013E-1,5.856227875E-2
2.278162902E1,-4.062615335E-3,1.229840294E-1,5.135440826E-2
2.279765075E1,-8.720353246E-3,1.029193103E-1,4.414844513E-2
2.281358093E1,-3.922320902E-3,9.756366909E-2,3.216362000E-2
2.282957214E1,1.284808666E-2,9.240292013E-2,3.454875946E-2
2.284553283E1,-6.134286523E-3,1.000075340E-1,2.737331390E-2
2.286143249E1,-1.089654863E-2,9.994825721E-2,4.173755646E-2
2.287742370E1,5.998373032E-3,8.724734187E-2,2.974796295E-2
2.289338439E1,-3.293626010E-3,9.857724607E-2,1.775836945E-2
2.290937560E1,-1.260166615E-2,9.366886318E-2,2.972412109E-2
2.292533630E1,-1.952372491E-2,1.014495790E-1,4.170513153E-2
2.294132751E1,4.690997303E-3,8.856025338E-2,4.413318634E-2
2.295731872E1,-2.168223262E-3,8.935756981E-2,4.414844513E-2
2.297321838E1,-1.129825413E-2,8.961224556E-2,4.654407501E-2
2.298920959E1,-8.753411472E-3,9.255222976E-2,3.937339783E-2
2.300517028E1,5.598343909E-3,8.949789405E-2,4.181003571E-2
2.302116149E1,-3.854684532E-3,8.147773147E-2,2.987670898E-2
2.303706115E1,1.052357256E-3,9.174849093E-2,3.707408905E-2
2.305299133E1,1.315571368E-2,8.635698259E-2,3.466415405E-2
2.306901306E1,8.380100131E-3,7.801094651E-2,4.421234131E-2
2.308494323E1,1.537816972E-2,7.458968461E-2,2.742958069E-2
2.310090393E1,-8.955515921E-3,9.255647659E-2,3.937530518E-2
2.311683410E1,2.184841037E-2,9.102088213E-2,4.413032532E-2
2.313273376E1,1.597553492E-4,8.454005420E-2,4.887962341E-2
2.314875549E1,4.746481776E-3,8.972631395E-2,3.446865082E-2
2.316474670E1,-2.978667617E-4,6.747128069E-2,3.679180145E-2
2.318073791E1,1.562841237E-3,8.061657846E-2,3.910827637E-2
2.319669860E1,2.048517019E-2,5.608142912E-2,1.749420166E-2
2.321272033E1,-1.316677779E-2,8.622108400E-2,2.226161957E-2
2.322865051E1,1.809557527E-2,6.966829300E-2,3.423595428E-2
2.324464172E1,1.075293869E-2,5.050526559E-2,7.901191711E-3
2.326066345E1,-1.313641667E-3,6.095817685E-2,2.462673187E-2
2.327665466E1,-1.443155110E-3,4.384775460E-2,2.696132660E-2
2.329264587E1,2.780184150E-3,5.822272599E-2,3.409767151E-2
2.330863708E1,2.677984536E-3,6.870853901E-2,2.688312531E-2
2.332456726E1,2.522207797E-3,5.892437696E-2,4.603385925E-2
2.334046691E1,-1.185934991E-2,5.132792890E-2,1.490020752E-2
2.335648864E1,-6.812490523E-3,4.845733941E-2,2.930450439E-2
2.337238830E1,4.815757275E-4,5.268910527E-2,1.013755798E-2
2.338834899E1,2.848871052E-3,4.613675177E-2,3.164672852E-2
2.340430969E1,1.217884570E-2,4.649534822E-2,3.399944305E-2
2.342023986E1,1.668618619E-2,5.936010182E-2,3.875923157E-2
2.343626159E1,6.980389357E-3,3.318481147E-2,3.158092499E-2
2.345219177E1,4.617348313E-3,4.172652960E-2,4.358100891E-2
2.346821350E1,-1.686032861E-2,4.320637882E-2,4.121780396E-2
2.348420471E1,4.768237472E-3,4.996386170E-2,2.684211731E-2
2.350013488E1,-4.961185157E-3,4.816326499E-2,3.398799896E-2
2.351609558E1,-4.994392395E-3,4.394164681E-2,4.831504822E-2
2.353199523E1,4.458829761E-3,3.602665663E-2,3.393554688E-2
2.354795593E1,-7.760599256E-3,5.277930200E-2,2.675437927E-2
2.356391662E1,-7.777445018E-3,4.081641138E-2,1.239013672E-2
2.357984680E1,-4.807636142E-4,4.529604316E-2,5.068874359E-2
2.359586852E1,-5.409114063E-3,3.103704751E-2,1.717472076E-2
2.361176818E1,8.879862726E-3,3.607213497E-2,3.394031525E-2
2.362772888E1,-3.062330186E-3,4.335260391E-2,4.591274261E-2
2.364365905E1,6.633318961E-3,3.511744738E-2,3.631210327E-2
2.365961975E1,-4.766806960E-4,3.607881069E-2,4.585838318E-2
2.367561096E1,9.073875844E-3,5.270418525E-2,4.825019836E-2
2.369151062E1,2.063557506E-3,3.527991474E-2,2.194786072E-2
2.370750183E1,-2.701230347E-3,3.120467067E-2,1.956939697E-2
2.372346252E1,-2.668753266E-3,4.019325972E-2,3.636646271E-2
2.373939270E1,-5.255497992E-3,4.597693682E-2,2.676200867E-2
2.375541442E1,1.604311168E-3,3.092804551E-2,3.388309479E-2
2.377137512E1,3.582336009E-3,4.458732903E-2,6.494712830E-2
2.378736633E1,-1.320794970E-2,4.012632370E-2,6.016635895E-2
2.380329650E1,-3.406740725E-3,3.380821645E-2,1.953029633E-2
2.381928772E1,-1.020613313E-2,3.067612648E-2,1.721763611E-2
2.383518737E1,6.766974926E-3,4.005984962E-2,1.247501373E-2
2.385120910E1,4.335656762E-3,3.616295755E-2,1.244258881E-2
2.386716980E1,1.113287359E-2,5.892731249E-2,5.307292938E-2
2.388313049E1,6.251387298E-3,4.419289529E-2,5.301570892E-2
2.389915222E1,-3.633312881E-3,4.146093130E-2,4.104042053E-2
2.391511291E1,-1.122802496E-3,5.838412046E-2,2.912235260E-2
2.393110412E1,-1.295585930E-2,5.654442310E-2,7.635116577E-3
2.394709533E1,3.832980990E-3,2.678126097E-2,1.724147797E-2
2.396308654E1,-1.058062166E-2,3.213296831E-2,1.002025604E-2
2.397904724E1,-2.276436239E-2,4.805642366E-2,4.586696625E-2
2.399503845E1,8.151873946E-3,4.124860466E-2,4.103851318E-2
2.401099914E1,-8.671328425E-3,4.244129360E-2,3.867053986E-2
2.402695983E1,7.990427315E-3,3.802667558E-2,9.999275208E-3
2.404292053E1,-1.109486073E-2,4.068166018E-2,4.117870331E-2
2.405885070E1,7.898360491E-4,3.701210022E-2,2.205085754E-2
2.407487243E1,-6.372302771E-3,4.792812467E-2,2.681636810E-2
2.409080261E1,1.025301218E-2,3.163492680E-2,4.592895508E-2
2.410679382E1,-6.705656648E-3,4.250958562E-2,4.590892792E-2
2.412269348E1,2.760350704E-3,4.965795577E-2,3.633308411E-2
2.413859314E1,-4.483461380E-3,4.687510431E-2,4.111385345E-2
2.415461486E1,-2.244874835E-3,4.412288964E-2,3.153038025E-2
2.417054504E1,9.981520474E-3,2.330476046E-2,5.788040161E-2
2.418653625E1,5.024224520E-4,3.204618394E-2,4.354667664E-2
2.420249694E1,-6.602622569E-3,3.029361367E-2,4.595375061E-2
2.421848815E1,-2.331096679E-2,3.122796118E-2,3.634452820E-2
2.423444885E1,5.142465234E-4,3.522853553E-2,4.106807709E-2
2.425047058E1,-1.434820890E-2,2.680456638E-2,4.818058014E-2
2.426643127E1,2.119421959E-3,2.435879409E-2,4.813385010E-2
2.428233093E1,-5.734711885E-5,3.986980021E-2,4.576015472E-2
2.429826110E1,-2.265259624E-3,3.843177855E-2,4.103851318E-2
2.431422180E1,1.452291757E-2,2.959553897E-2,1.716136932E-2
2.433012146E1,-1.895339787E-2,3.949816525E-2,1.237964630E-2
2.434611267E1,1.193850487E-2,2.766525745E-2,3.388309479E-2
2.436207336E1,4.446677864E-3,2.772492170E-2,5.778026581E-2
2.437803405E1,6.763018668E-3,2.957142889E-2,3.382778168E-2
2.439402526E1,4.397064447E-3,2.794770896E-2,2.905559540E-2
2.440995544E1,-9.982578456E-3,6.141008437E-2,3.868103027E-2
2.442594665E1,-1.830756664E-4,3.337496519E-2,7.231330872E-2
2.444184631E1,-2.419144660E-2,4.381638765E-2,5.099582672E-2
2.445780700E1,-7.203154266E-3,6.650894880E-3,5.374908447E-2
2.447379821E1,-1.861227304E-2,2.159990370E-2,2.544689178E-2
2.448969787E1,7.397681475E-4,1.481267810E-2,-5.352973938E-3
2.450568908E1,-8.950568736E-3,2.761322260E-2,1.985549927E-3
2.452164978E1,-9.123258293E-3,1.532083750E-2,4.028606415E-2
2.453761047E1,-4.419706762E-3,1.893141866E-2,2.342891693E-2
2.455360168E1,4.902340472E-3,3.204451501E-2,4.009246826E-2
2.456950134E1,-9.805709124E-5,4.622080922E-2,4.241943359E-2
2.458549255E1,1.175887138E-2,6.230056286E-3,4.962253571E-2
2.460142273E1,-3.303661942E-4,2.721872926E-2,2.100849152E-2
2.461735290E1,-1.692645997E-2,1.767307520E-2,1.874351501E-2
2.463331359E1,-9.681567550E-3,1.073375344E-2,2.839279175E-2
2.464924377E1,2.164557576E-3,2.226483822E-2,1.641178131E-2
2.466526550E1,-7.553137839E-3,1.743137836E-2,4.746913910E-2
2.468122619E1,-2.901449800E-3,2.534714341E-2,8.094406128E-2
2.469721740E1,4.048861563E-3,2.351048589E-2,5.469322205E-2
2.471314758E1,-5.354434252E-4,2.081444860E-2,3.573036194E-2
2.472916931E1,-2.808205783E-3,2.675056458E-2,2.878665924E-2
2.474513000E1,6.918072701E-3,1.072400808E-2,2.662658691E-2
2.476115173E1,4.716739058E-3,1.961129904E-2,2.921676636E-2
2.477714294E1,-1.194741577E-2,2.049782872E-2,5.333423615E-2
2.479313415E1,7.544182241E-3,6.440550089E-3,2.236747742E-2
2.480909484E1,-4.130542278E-3,2.506363392E-2,3.207874298E-2
2.482508606E1,-1.564584672E-3,-7.000565529E-5,4.416370392E-2
2.484104675E1,7.710903883E-4,2.243408561E-2,3.709220886E-2
2.485700744E1,-4.015706480E-3,1.119953394E-2,3.480148315E-2
2.487302917E1,-1.350147277E-2,9.958654642E-3,4.210281372E-2
2.488895935E1,-1.101411879E-2,1.096248627E-2,4.461097717E-2
2.490498107E1,-1.088383049E-2,1.783192158E-3,3.991699219E-2
2.492091125E1,-8.384518325E-3,4.396736622E-3,4.479408264E-2
2.493687194E1,8.310407400E-3,2.917414904E-2,3.772449493E-2
2.495280212E1,3.509998322E-3,-9.851276875E-3,3.547382355E-2
2.496870178E1,-1.544020325E-2,3.762006760E-3,3.082752228E-2
2.498469299E1,-5.727663636E-3,1.179128885E-3,2.372169495E-2
2.500065368E1,-3.347508609E-3,8.529871702E-3,4.767036438E-2
2.501655334E1,-1.558865607E-2,1.101341844E-2,3.810024261E-2
2.503257507E1,-1.314796507E-2,2.717423439E-2,3.337574005E-2
2.504853576E1,-5.967408419E-3,-1.219376922E-2,2.632904053E-2
2.506452697E1,-2.041313052E-2,1.104772091E-2,2.408695221E-2
2.508048767E1,-6.219089031E-3,7.294446230E-3,2.727508545E-4
2.509638732E1,8.162163198E-3,1.124212146E-2,3.145599365E-2
2.511237854E1,1.532422006E-2,-8.468866348E-3,2.922248840E-2
2.512833923E1,-1.334052533E-2,1.090130210E-2,4.368686676E-2
2.514429992E1,-3.787629306E-3,-1.533448696E-3,2.939510345E-2
2.516029113E1,-1.591940224E-2,1.656520367E-2,4.381465912E-2
2.517622131E1,3.213569522E-3,1.386207342E-2,5.347156525E-2
2.519221252E1,-2.304103971E-2,8.203893900E-3,3.207588196E-2
2.520817321E1,8.288651705E-3,1.444280148E-3,8.336067200E-3
2.522416442E1,-3.478057683E-3,-3.831535578E-3,6.112098694E-3
2.524015564E1,-3.717884421E-3,-4.282236099E-3,5.168247223E-2
2.525608581E1,-1.407079399E-3,-3.880679607E-3,4.691219330E-2
2.527207702E1,3.237210214E-3,-8.813202381E-3,2.536010742E-2
2.528797668E1,-1.131988317E-2,1.249665022E-2,3.253459930E-2
2.530399841E1,-1.836851239E-3,-1.096627116E-2,3.973865509E-2
2.531995910E1,-2.365683764E-2,8.910924196E-3,2.301120758E-2
2.533591980E1,-2.117998898E-3,7.301867008E-3,3.022575378E-2
2.535191101E1,5.119919777E-3,-8.227854967E-3,3.027534485E-2
2.536781066E1,1.230252534E-2,2.369582653E-4,4.469299316E-2
2.538380188E1,2.624131739E-3,-1.782000065E-2,1.840209961E-2
2.539970153E1,-6.957180798E-3,6.456136703E-3,3.038692474E-2
2.541560119E1,-2.850692719E-2,3.918915987E-3,4.474639893E-2
2.543162292E1,-9.502977133E-3,3.725856543E-3,6.149959564E-2
2.544755310E1,-9.590871632E-3,1.054379344E-2,5.918979645E-2
2.546354431E1,1.184642315E-5,3.840535879E-3,4.983139038E-2
2.547950500E1,2.567879856E-3,6.816715002E-3,4.297256470E-2
2.549546569E1,-4.508942366E-3,-2.536222339E-2,2.532005310E-3
2.551145690E1,-2.141706645E-3,-1.196390390E-2,2.593994141E-3
2.552738708E1,-1.180783659E-2,-9.604573250E-3,2.643299103E-2
2.554334777E1,-2.433955669E-3,-9.157121181E-3,6.455707550E-2
2.555933898E1,-1.193502545E-2,-1.080328226E-2,5.480766296E-2
2.557536071E1,-1.427990198E-2,-1.899388433E-2,3.072261810E-2
2.559129089E1,-2.367101610E-3,-4.469364882E-3,2.105331421E-2
2.560719055E1,-2.119377255E-3,-8.093208075E-3,4.254627228E-2
2.562318176E1,-1.405986398E-2,-1.585793495E-2,4.012870789E-2
2.563914245E1,4.737675190E-4,-1.657038927E-2,1.854896545E-2
2.565504211E1,3.108926117E-3,-4.166767001E-2,4.483604431E-2
2.567106384E1,9.054839611E-4,-2.470153570E-2,3.995513916E-2
2.568696350E1,-1.760967076E-3,-4.456096888E-2,1.828289032E-2
2.570295471E1,-6.670914590E-3,-6.182619929E-2,6.126308441E-2
2.571885437E1,-1.121331751E-2,-2.575224638E-2,4.441070557E-2
2.573481506E1,-1.384504139E-3,-4.079827666E-2,2.283287048E-2
2.575080627E1,3.430590034E-3,-3.467848897E-2,4.203891754E-2
2.576673645E1,-2.510068566E-2,-2.967673540E-2,4.214191437E-2
2.578275817E1,-9.471997619E-4,-6.792953610E-2,5.181598663E-2
2.579865783E1,-8.153900504E-3,-5.816930532E-2,8.728027344E-3
2.581461852E1,6.292581558E-3,-3.776866198E-2,1.346874237E-2
2.583060974E1,-1.805833727E-2,-3.534340858E-2,2.994537354E-2
2.584650939E1,-1.319739968E-2,-6.309947371E-2,5.373573303E-2
2.586247009E1,1.357436180E-3,-4.983609915E-2,5.129623413E-2
2.587843078E1,-1.037708670E-2,-5.829110742E-2,3.936672211E-2
2.589436096E1,-6.537362933E-4,-5.768382549E-2,1.305198669E-2
2.591032165E1,-1.014840603E-2,-5.162221193E-2,2.019023895E-2
2.592625183E1,-1.487708837E-2,-6.127032638E-2,4.882335663E-2
2.594224304E1,6.696641445E-3,-9.781432152E-2,4.152107239E-2
2.595817321E1,-1.268421859E-2,-6.646606326E-2,3.425788879E-2
2.597416442E1,-1.503270119E-2,-7.332301140E-2,3.905773163E-2
2.599006408E1,-7.659383118E-3,-7.087898254E-2,4.633331299E-2
2.600599426E1,-5.169883370E-4,-8.117133379E-2,4.639911652E-2
2.602198547E1,-7.531657815E-3,-6.675288081E-2,1.048660278E-2
2.603791564E1,-2.171333134E-2,-7.969319820E-2,1.523590088E-2
2.605384582E1,-9.600676596E-3,-7.044988871E-2,4.634475708E-2
2.606980651E1,-9.411364794E-3,-8.808124065E-2,1.527786255E-2
2.608573669E1,-6.730630994E-3,-6.876689196E-2,2.016353607E-2
2.610175842E1,-1.118997484E-2,-9.352642298E-2,3.462791443E-3
2.611774963E1,-8.766867220E-3,-8.205774426E-2,2.020168304E-2
2.613377136E1,-6.203465164E-3,-9.267482162E-2,4.170608521E-2
2.614970153E1,-8.443489671E-3,-8.119750023E-2,2.722644806E-2
2.616572326E1,-2.041509002E-2,-8.656674623E-2,2.232265472E-2
2.618168396E1,-1.072913408E-3,-7.015416026E-2,2.939701080E-2
2.619767517E1,8.545726538E-3,-8.333575726E-2,4.610919952E-2
2.621360534E1,1.555331051E-3,-9.773370624E-2,4.610538483E-2
2.622959655E1,-3.068752587E-3,-6.588387489E-2,3.416061401E-2
2.624555725E1,4.383884370E-3,-8.188000321E-2,3.418827057E-2
2.626154846E1,-2.825036645E-4,-8.417230844E-2,7.853507996E-3
2.627753967E1,2.161368728E-3,-6.871494651E-2,5.408287048E-3
2.629350036E1,-2.408692241E-2,-8.068224788E-2,3.404712677E-2
2.630952209E1,-1.204818487E-2,-7.040646672E-2,6.750011444E-2
2.632548278E1,-7.141537964E-3,-6.879901886E-2,4.352760315E-2
2.634147399E1,7.314369082E-3,-5.601394176E-2,1.482677460E-2
2.635740417E1,-2.138535678E-2,-7.588490844E-2,3.883171082E-2
2.637336486E1,-6.888449192E-3,-9.346836805E-2,5.086135864E-2
2.638932556E1,-1.154581457E-2,-7.722568512E-2,1.492786407E-2
2.640525573E1,-4.550732672E-3,-7.434931397E-2,1.237106323E-2
2.642127746E1,4.770345986E-3,-9.967604280E-2,6.002616882E-2
2.643717712E1,6.966829300E-3,-9.361872077E-2,4.544544220E-2
2.645313781E1,-9.902432561E-3,-8.284708858E-2,5.010318756E-2
2.646915954E1,-9.886220098E-3,-7.885056734E-2,2.613258362E-2
2.648512023E1,-2.280130982E-3,-8.497452736E-2,1.419544220E-2
2.650111145E1,-1.175364107E-2,-9.669807553E-2,2.617454529E-2
2.651704162E1,-4.520878196E-3,-8.223569393E-2,3.566741943E-2
2.653297180E1,9.986735880E-3,-8.131811023E-2,1.158428192E-2
2.654896301E1,-4.469230771E-3,-9.439596534E-2,2.822208405E-2
2.656486267E1,1.476109028E-4,-6.289428473E-2,4.491138458E-2
2.658085388E1,-9.478993714E-3,-8.775144815E-2,4.017543793E-2
2.659681457E1,-2.263292670E-3,-7.681754231E-2,3.064632416E-2
2.661280578E1,-4.757829010E-3,-8.570846915E-2,2.109432220E-2
2.662876648E1,-2.157088369E-2,-7.083401084E-2,4.266166687E-2
2.664478820E1,9.680986404E-3,-8.362579346E-2,2.116870880E-2
2.666074890E1,-1.642920822E-2,-8.059066534E-2,3.324604034E-2
2.667664856E1,5.313873291E-3,-7.111462951E-2,3.332710266E-2
2.669257873E1,-4.347093403E-3,-7.002010942E-2,1.900196075E-2
2.670856994E1,2.719566226E-3,-9.094300866E-2,1.423740387E-2
2.672459167E1,-9.265974164E-3,-6.115207076E-2,5.018901825E-2
2.674055236E1,-9.263217449E-3,-7.572549582E-2,5.505752563E-2
2.675651306E1,2.819143236E-3,-6.515085697E-2,1.926898956E-2
2.677253478E1,-6.769895554E-3,-6.950339675E-2,4.092216492E-2
2.678852600E1,-2.138406038E-3,-5.706432462E-2,2.897071838E-2
2.680448669E1,-6.983265281E-3,-4.974538088E-2,5.052375793E-2
2.682047790E1,7.136985660E-3,-5.656495690E-2,3.360271454E-2
2.683643859E1,-2.380909026E-2,-4.503971338E-2,3.358459473E-2
2.685239929E1,2.555623651E-3,-7.496583462E-2,2.644538879E-2
2.686839050E1,2.702519298E-3,-6.193858385E-2,4.084777832E-2
2.688432067E1,-1.155689359E-2,-5.738517642E-2,2.886772156E-2
2.690034240E1,1.958470792E-2,-6.216526031E-2,3.126144409E-2
2.691633361E1,-1.910351217E-3,-5.688741803E-2,5.282783508E-2
2.693235534E1,-1.622053981E-2,-5.056634545E-2,5.527782440E-2
2.694828552E1,-1.135271043E-2,-5.095168948E-2,2.422809601E-2
2.696430725E1,-1.130244136E-2,-4.958233237E-2,3.625011444E-2
2.698026794E1,3.031671047E-3,-6.115433574E-2,4.584121704E-2
2.699628967E1,7.772587240E-3,-3.773841262E-2,3.864002228E-2
2.701225036E1,1.481516659E-2,-2.934223413E-2,5.296230316E-2
2.702824157E1,-6.781965494E-3,-3.741559386E-2,5.292987823E-2
2.704420227E1,2.176830173E-2,-4.978042841E-2,2.897453308E-2
2.706019348E1,-2.268388867E-3,-3.477820754E-2,3.618144989E-2
2.707618469E1,4.824131727E-3,-4.986464977E-2,4.342842102E-2
2.709214538E1,-4.867285490E-3,-4.554843903E-2,4.350185394E-2
2.710813659E1,-1.442003250E-2,-3.501921892E-2,2.917289734E-2
2.712409728E1,-1.926593482E-2,-4.458197951E-2,2.199077606E-2
2.714008850E1,4.788704216E-3,-5.494254827E-2,3.872013092E-2
2.715604919E1,-2.572312951E-4,-3.875949979E-2,5.067157745E-2
2.717200988E1,-5.126349628E-3,-2.667200565E-2,4.110050201E-2
2.718800109E1,-4.990324378E-4,-4.744309187E-2,3.394889832E-2
2.720390075E1,-1.249895245E-2,-4.162159562E-2,2.441215515E-2
2.721989196E1,2.091155201E-2,-4.103368521E-2,5.316638947E-2
2.723582214E1,3.866337240E-3,-3.663101792E-2,3.160667419E-2
2.725172180E1,-1.077232510E-2,-2.580237389E-2,4.593086243E-2
2.726774352E1,8.115217090E-3,-2.420744300E-2,3.872108459E-2
2.728367370E1,-3.853186965E-3,-2.909687161E-2,6.265926361E-2
2.729966491E1,-1.560866833E-3,-3.533336520E-2,3.157138824E-2
2.731556457E1,-3.825537860E-3,-2.984005213E-2,3.159618378E-2
2.733152526E1,-1.337812096E-2,-2.523282170E-2,2.440738678E-2
2.734748596E1,-8.829697967E-3,-3.812876344E-2,5.070972443E-2
2.736338562E1,4.995316267E-4,-5.076289177E-2,4.111194611E-2
2.737937683E1,-1.190397143E-2,-3.722858429E-2,1.714229584E-2
2.739530700E1,1.041889191E-4,-4.251360893E-2,5.303668976E-2
2.741129821E1,-2.292014658E-3,-3.998982906E-2,4.107093811E-2
2.742719787E1,-9.366631508E-3,-4.698166251E-2,5.065345764E-2
2.744315856E1,-9.473875165E-3,-3.570613265E-2,3.865814209E-2
2.745914978E1,-2.631576359E-2,-3.752961755E-2,4.098415375E-2
2.747511047E1,-4.776917398E-3,-3.263661265E-2,3.610992432E-2
2.749113220E1,-2.441890538E-3,-9.049236774E-3,4.079627991E-2
2.750712341E1,-1.190574467E-2,-3.030085564E-2,1.917076111E-2
2.752311462E1,1.201242208E-2,-3.419357538E-2,2.390480042E-2
2.753910583E1,2.337485552E-3,-2.324727178E-2,2.626228333E-2
2.755506652E1,2.228423953E-3,-3.171497583E-2,1.663970947E-2
2.757102722E1,-7.750093937E-5,-4.581880569E-2,9.379386902E-3
2.758704895E1,-5.028098822E-3,-1.570275426E-2,4.038333893E-2
2.760307067E1,-1.229156554E-2,-3.164246678E-2,3.784847260E-2
2.761900085E1,-7.353298366E-3,-4.812622070E-2,8.957862854E-3
2.763502258E1,6.921865046E-3,-1.369211078E-2,5.423164368E-2
2.765095275E1,2.088643610E-3,-2.516388893E-2,3.493309021E-2
2.766691345E1,9.273216128E-3,-2.505975962E-2,3.485584259E-2
2.768293518E1,-5.166143179E-3,-2.211010456E-2,7.070922852E-2
2.769892639E1,-1.477275044E-2,-1.965901256E-2,2.035140991E-2
2.771488708E1,1.874670386E-3,-8.203119040E-3,2.744007111E-2
2.773084777E1,-4.406124353E-4,-3.230345249E-2,5.369091034E-2
2.774683898E1,-1.022197306E-2,-1.197487116E-3,1.770305634E-2
2.776283020E1,6.508626044E-3,-3.010228276E-2,4.874515533E-2
2.777879089E1,-1.735160500E-2,-2.060920000E-2,3.669357300E-2
2.779472106E1,-1.263755560E-2,-4.652351141E-3,1.983356476E-2
2.781068176E1,1.700282097E-3,-1.376402378E-2,6.040000916E-2
2.782667297E1,-1.498668641E-2,-2.706295252E-2,2.429771423E-2
2.784257263E1,-6.413087249E-4,-1.012411714E-2,3.366470337E-2
2.785856384E1,-7.238760591E-4,-9.261786938E-3,3.826713562E-2
2.787449401E1,-1.303341985E-2,8.570253849E-3,4.774093628E-2
2.789048523E1,-8.916325867E-3,2.841979265E-3,3.575134277E-2
2.790644592E1,4.507377744E-4,1.198664308E-2,4.292297363E-2
2.792246765E1,-4.421330988E-3,-8.196324110E-3,-9.778022766E-3
2.793839782E1,7.045514882E-3,-2.605587244E-3,5.475807190E-2
2.795438903E1,2.019122243E-3,9.578347206E-3,4.984569550E-2
2.797041076E1,1.784376800E-3,2.271643281E-2,5.693149567E-2
2.798640197E1,9.568706155E-3,2.934694290E-3,4.493713379E-2
2.800236267E1,-1.168701798E-2,-6.793856621E-3,2.823543549E-2
2.801835388E1,-6.655298173E-3,-3.345102072E-3,1.635646820E-2
2.803431457E1,7.616467774E-3,1.782533526E-2,1.162624359E-2
2.805024475E1,2.493791282E-3,9.641319513E-3,4.418373108E-3
2.806626648E1,4.782743752E-3,3.932952881E-3,4.263496399E-2
2.808219665E1,-4.986144602E-3,6.285578012E-3,2.820587158E-2
2.809818786E1,-7.223799825E-3,3.491239250E-2,2.341270447E-2
2.811411804E1,-6.934061646E-3,1.039883494E-2,2.585411072E-2
2.813004821E1,-4.440188408E-3,4.358887672E-4,3.787803650E-2
2.814600891E1,5.234971642E-3,1.567977667E-2,1.635456085E-2
2.816193908E1,-6.782241166E-3,2.174070477E-2,1.392841339E-2
2.817796081E1,-4.510261118E-3,2.949854732E-2,3.303432465E-2
2.819389099E1,2.593666315E-3,3.539867699E-2,3.778743744E-2
2.820991272E1,7.449708879E-3,9.721666574E-3,3.062343597E-2
2.822584289E1,-1.155649871E-2,3.766445816E-2,3.066539764E-2
2.824186462E1,-2.000048757E-3,2.489823103E-2,2.352714539E-2
2.825785583E1,2.917885035E-2,3.284409642E-2,4.270076752E-2
2.827381652E1,-2.005122602E-3,2.025905252E-2,4.268455505E-2
2.828974670E1,2.803295851E-3,3.134623170E-2,3.787136078E-2
2.830573791E1,-4.283398390E-3,2.866375446E-2,1.631546021E-2
2.832166809E1,-6.678290665E-3,3.891731799E-2,4.363059998E-3
2.833765930E1,1.032967120E-2,4.303406179E-2,2.356052399E-2
2.835365051E1,1.027885079E-2,4.254133999E-2,2.600955963E-2
2.836967224E1,1.517818868E-2,2.227047086E-2,2.364921570E-2
2.838566345E1,5.528844893E-3,3.882037103E-2,4.489898682E-3
2.840165466E1,5.468204618E-4,4.443614185E-2,2.120876312E-2
2.841761535E1,-4.461273551E-3,5.012883246E-2,5.229377747E-2
2.843354553E1,-1.881870627E-2,3.365832567E-2,3.314781189E-2
2.844950622E1,5.491673946E-4,3.196233511E-2,4.759788513E-2
2.846549743E1,2.001447976E-2,4.470725358E-2,2.859878540E-2
2.848151916E1,-1.487687230E-3,3.363078833E-2,4.538345337E-2
2.849744934E1,-6.458833814E-3,4.522319138E-2,1.185607910E-2
2.851344055E1,1.519651711E-2,3.334322572E-2,3.812503815E-2
2.852946228E1,1.028214395E-2,4.798047245E-2,5.482578278E-2
2.854545349E1,-1.724466681E-3,3.919677436E-2,2.844429016E-2
2.856141418E1,6.260052323E-4,4.342795908E-2,2.364063263E-2
2.857737487E1,-6.378948689E-3,4.857201874E-2,5.956172943E-2
2.859333557E1,8.203305304E-3,4.937510192E-2,3.085136414E-2
2.860923523E1,-1.355722547E-3,3.985671699E-2,2.606487274E-2
2.862525695E1,-1.324208081E-2,5.799943209E-2,1.885223389E-2
2.864118713E1,-1.098892093E-2,4.153458774E-2,2.358341217E-2
2.865714782E1,-2.067484707E-2,6.147783995E-2,3.790473938E-2
2.867310852E1,2.728635818E-2,2.069810033E-2,4.508495331E-2
2.868906921E1,1.046174765E-2,5.501508713E-2,4.989719391E-2
2.870506042E1,-1.116866618E-2,3.420296311E-2,6.822586060E-3
2.872099060E1,-1.368637383E-2,4.272244871E-2,3.791809082E-2
2.873698181E1,-9.116731584E-3,4.983896017E-2,5.461311340E-2
2.875294250E1,-4.297807813E-3,4.823443294E-2,4.499149323E-2
2.876896423E1,-6.507806480E-3,3.885821998E-2,2.584171295E-2
2.878495544E1,-3.881104290E-3,4.752857983E-2,2.348518372E-2
2.880094665E1,-1.350477338E-3,3.809212148E-2,1.151657104E-2
2.881693786E1,3.533639014E-3,4.881802201E-2,1.626968384E-2
2.883289856E1,-1.325339079E-2,4.836165905E-2,5.210494995E-2
2.884882873E1,1.212477684E-3,3.400562704E-2,4.964542389E-2
2.886485046E1,1.340143383E-2,4.393896461E-2,3.528785706E-2
2.888078064E1,-1.267794520E-2,4.623353481E-2,3.534603119E-2
2.889677185E1,-1.965174824E-2,6.722398102E-2,3.060626984E-2
2.891273254E1,1.149944961E-2,5.498006940E-2,9.050369263E-3
2.892866272E1,-7.857352495E-3,5.499383807E-2,3.292942047E-2
2.894462341E1,-5.563922226E-3,4.917734861E-2,4.002189636E-2
2.896052307E1,-5.539976060E-3,6.191094220E-2,5.673694611E-2
2.897651428E1,1.630291343E-3,5.978552997E-2,5.195522308E-2
2.899247497E1,-1.019867510E-2,7.192629576E-2,3.047466278E-2
2.900846618E1,-5.138956010E-3,3.780569136E-2,3.530883789E-2
2.902442688E1,-9.877376258E-3,3.472651541E-2,3.529071808E-2
2.904044860E1,-5.472525954E-4,5.354160070E-2,3.761291504E-2
2.905640930E1,-1.523932815E-2,6.711700559E-2,5.668544769E-2
2.907236999E1,-1.535324752E-2,6.650695205E-2,3.033542633E-2
2.908839172E1,-1.053638011E-2,3.731705248E-2,4.714488983E-2
2.910429138E1,6.264045835E-3,5.226576328E-2,3.525257111E-2
2.912031310E1,-5.610957742E-3,5.187162757E-2,2.094078064E-2
2.913627380E1,-3.427349031E-3,4.503667355E-2,4.489421844E-2
2.915217346E1,5.984388292E-3,4.802966118E-2,4.245281219E-2
2.916816467E1,8.206538856E-3,7.180717587E-2,4.957008362E-2
2.918406433E1,3.388956189E-3,6.932425499E-2,3.274536133E-2
2.919996398E1,5.810081959E-3,4.699125886E-2,3.272342682E-2
2.921595520E1,1.790704578E-2,5.942486227E-2,2.555179596E-2
2.923194641E1,-3.769800067E-3,6.735345721E-2,3.754425049E-2
2.924796814E1,5.711823702E-3,4.467037320E-2,1.596832275E-2
2.926389831E1,-1.613940299E-2,6.328237057E-2,5.180740356E-2
2.927992004E1,7.701657712E-3,6.755468249E-2,3.976249695E-2
2.929588073E1,-1.646887511E-2,5.567164719E-2,4.694938660E-2
2.931190246E1,2.686969936E-3,5.823566020E-2,4.462146759E-2
2.932789367E1,1.244147867E-2,6.133191288E-2,2.075862885E-2
2.934388488E1,-6.548665464E-3,5.977930129E-2,3.753757477E-2
2.935984558E1,1.017011702E-2,5.378361046E-2,2.793025970E-2
2.937583679E1,-9.063184261E-3,5.650751293E-2,2.069473267E-2
2.939179748E1,7.729031146E-3,6.448093057E-2,5.177688599E-2
2.940772766E1,-6.629578769E-3,5.520217121E-2,4.699516296E-2
2.942374938E1,-4.192620516E-3,6.350597739E-2,4.702472687E-2
2.943967956E1,-1.688592136E-3,6.205599010E-2,3.747177124E-2
2.945567077E1,-6.437204778E-3,5.160783231E-2,4.469394684E-2
2.947163146E1,1.282074302E-2,4.679995775E-2,8.778572083E-3
2.948753112E1,3.070309758E-3,5.963955820E-2,2.310657501E-2
2.950352233E1,-4.434950650E-3,6.684398651E-2,2.783584595E-2
2.951945251E1,5.137108266E-3,4.327496886E-2,3.736114502E-2
2.953544372E1,2.370700240E-4,5.633001029E-2,5.408859253E-2
2.955140441E1,2.724662423E-3,4.399903119E-2,4.689502716E-2
2.956742614E1,-1.940540969E-3,4.647773504E-2,3.265476227E-2
2.958341735E1,-2.342151105E-2,4.702150822E-2,2.554798126E-2
2.959937805E1,-2.082803100E-2,4.051610827E-2,2.316951752E-2
2.961533874E1,-8.851982653E-3,5.319084227E-2,5.424976349E-2
2.963132995E1,2.799525857E-3,6.493446231E-2,4.221343994E-2
2.964726013E1,-9.469099343E-3,6.410211325E-2,6.853199005E-2
2.966325134E1,7.964670658E-6,4.698276520E-2,4.224967957E-2
2.967918151E1,3.219321370E-4,5.275578797E-2,2.318000793E-2
2.969517273E1,5.718991160E-4,6.494267285E-2,2.564144135E-2
2.971107238E1,-1.707151532E-3,4.383155704E-2,3.762245178E-2
2.972703308E1,5.302473903E-3,4.064121842E-2,5.196857452E-2
2.974305481E1,2.437152714E-2,5.113437772E-2,4.953670502E-2
2.975907653E1,2.685174346E-3,5.536846817E-2,2.558135986E-2
2.977503723E1,-9.123854339E-3,4.366093874E-2,2.797985077E-2
2.979093688E1,1.714950055E-2,5.066829920E-2,3.276443481E-2
2.980686706E1,2.766922116E-4,5.597688258E-2,2.559757233E-2
2.982288879E1,-6.998330355E-3,5.404572189E-2,3.518772125E-2
2.983891052E1,-9.406313300E-3,4.963004589E-2,5.195617676E-2
2.985484069E1,9.531289339E-3,5.482994020E-2,2.084541321E-2
2.987083190E1,-9.746648371E-3,5.246484280E-2,4.479026794E-2
2.988685363E1,1.169145852E-2,7.130542397E-2,3.759956360E-2
2.990284484E1,-9.973496199E-3,5.396543443E-2,5.913352966E-2
2.991880554E1,1.853205264E-3,7.202666998E-2,5.910682678E-2
2.993479675E1,-3.062255681E-3,5.084040761E-2,2.799320221E-2
2.995078796E1,-4.811584949E-4,5.617292225E-2,2.082252502E-2
2.996674865E1,-1.234621555E-2,5.136674643E-2,3.279209137E-2
2.998277038E1,-2.633564174E-3,5.090534687E-2,2.798938751E-2
2.999873107E1,-1.231718063E-2,3.518567979E-2,3.034973145E-2
3.001472228E1,1.899562776E-3,5.269248784E-2,3.509712219E-2
3.003068298E1,1.802116632E-3,3.657263517E-2,2.068710327E-2
3.004670471E1,-5.321726203E-4,4.161357880E-2,1.344776154E-2
3.006266540E1,-2.855688334E-3,4.988168180E-2,4.932689667E-2
3.007868713E1,2.098053694E-3,3.637611866E-2,4.695224762E-2
3.009464782E1,7.152900100E-3,3.297373652E-2,3.261947632E-2
3.011060852E1,-4.727773368E-3,2.141939104E-2,2.305221558E-2
3.012656921E1,-2.400979400E-3,6.245678663E-2,3.257751465E-2
3.014256042E1,-1.421270519E-2,5.892544985E-2,3.009128571E-2
3.015849060E1,-9.584948421E-3,5.118627846E-2,5.635452271E-2
3.017451232E1,-2.401411533E-3,5.495479703E-2,6.111717224E-2
3.019044250E1,-1.183529198E-2,4.327243567E-2,4.436492920E-2
3.020643371E1,1.805797219E-4,4.620923102E-2,5.395412445E-2
3.022236389E1,5.485862494E-4,3.943882883E-2,3.241252899E-2
3.023838562E1,-8.981242776E-3,2.990266681E-2,4.677772522E-2
3.025431579E1,7.612481713E-4,3.869901597E-2,4.675674438E-2
3.027030700E1,-3.964945674E-3,2.847595513E-2,6.039619446E-3
3.028632873E1,-4.101343453E-3,3.839199245E-2,3.238487244E-2
3.030231994E1,5.676805973E-3,3.806242347E-2,4.434585571E-2
3.031828064E1,3.553584218E-3,5.072157085E-2,2.035808563E-2
3.033424133E1,-1.261346042E-3,2.033963799E-2,4.186534882E-2
3.035017150E1,-1.236170530E-3,3.401669860E-2,3.466510773E-2
3.036616272E1,-8.357346058E-3,3.415808082E-2,1.551437378E-2
3.038206237E1,3.837041557E-3,2.007810771E-2,2.270126343E-2
3.039808410E1,-8.200004697E-3,2.895157039E-2,2.986812592E-2
3.041404480E1,1.562245190E-3,3.204321861E-2,2.024745941E-2
3.043000549E1,1.608654857E-3,2.543842793E-2,3.217411041E-2
3.044602722E1,1.529127359E-3,1.512159407E-2,2.976417542E-2
3.046201843E1,8.583135903E-3,2.746580541E-2,3.935146332E-2
3.047794860E1,-8.292719722E-4,2.087309957E-2,1.781463623E-2
3.049390930E1,-7.979795337E-3,2.815829217E-2,2.260494232E-2
3.050986999E1,-1.023016870E-3,2.942641079E-2,3.694629669E-2
3.052589172E1,-9.963735938E-4,3.537382185E-2,4.649257660E-2
3.054188293E1,1.823810488E-2,2.038483322E-2,4.163169861E-2
3.055787414E1,3.725476563E-3,2.983395755E-2,2.242088318E-2
3.057386535E1,-8.568882942E-3,2.062666416E-2,3.434944153E-2
3.058982605E1,-1.804596186E-2,1.533429325E-2,4.391288757E-2
3.060575622E1,1.331508160E-2,2.721516788E-2,3.672504425E-2
3.062177795E1,1.341339201E-2,2.034723759E-2,4.391479492E-2
3.063767761E1,-1.282002032E-2,1.344728470E-2,4.392051697E-2
3.065369934E1,-5.373023450E-3,2.656516433E-2,3.436660767E-2
3.066969055E1,-5.489394069E-3,2.923172712E-2,1.761436462E-2
3.068571228E1,1.589777321E-2,3.186389804E-2,3.917026520E-2
3.070170349E1,-1.040779799E-2,1.538561285E-2,2.241611481E-2
3.071769470E1,-3.309451044E-3,3.216519952E-2,5.593681335E-2
3.073368591E1,4.029832780E-3,5.295018852E-2,3.197479248E-2
3.074964660E1,6.399735808E-3,2.798436582E-2,4.152870178E-2
3.076563781E1,-3.172457218E-3,3.231264651E-2,6.067180634E-2
3.078159851E1,6.517611444E-3,3.280013800E-3,3.672122955E-2
3.079752868E1,-1.024299860E-2,3.154809773E-2,6.304740906E-2
3.081351989E1,-5.313374102E-3,2.174474299E-2,3.670406342E-2
3.082954162E1,1.805514097E-3,1.238062978E-2,1.516246796E-2
3.084553283E1,4.276290536E-3,1.725147665E-2,3.431701660E-2
3.086152404E1,-2.733200788E-3,2.620165050E-2,2.951240540E-2
3.087748474E1,-3.164559603E-4,5.936264992E-3,3.666877747E-2
3.089347595E1,-1.503253728E-2,1.208357513E-2,3.186035156E-2
3.090943664E1,-5.460456014E-4,1.131755114E-2,4.381370544E-2
3.092542785E1,-5.549311638E-3,2.568332851E-2,4.142093658E-2
3.094132751E1,-5.522623658E-3,1.992787421E-2,5.342483521E-2
3.095722717E1,6.620459259E-3,2.836376429E-2,4.632377625E-2
3.097321838E1,6.826467812E-3,2.551572025E-2,1.774883270E-2
3.098914856E1,-7.143370807E-3,2.132612467E-2,2.032756805E-2
3.100513977E1,-1.135004312E-2,1.101261377E-2,3.963661194E-2
3.102110046E1,3.491558135E-3,2.180321515E-2,1.099205017E-2
3.103712219E1,1.314856112E-2,3.267699480E-2,3.496742249E-2
3.105308288E1,-1.076610386E-2,1.581029594E-2,3.975200653E-2
3.106907409E1,-1.072934270E-2,-4.217326641E-3,4.697322845E-2
3.108500427E1,-3.450855613E-3,3.079994023E-2,4.228591919E-2
3.110102600E1,3.778532147E-3,3.668107092E-2,4.723072052E-2
3.111692565E1,-1.261925697E-2,1.282483339E-2,2.108860016E-2
3.113291687E1,-5.349524319E-3,1.576280594E-2,2.130508423E-2
3.114887756E1,-2.803504467E-4,1.088139415E-2,1.432323456E-2
3.116480773E1,-5.193717778E-3,2.714404464E-2,2.402782440E-2
3.118079895E1,4.153512418E-3,2.921330929E-2,4.564094543E-2
3.119679016E1,-8.069500327E-4,5.882680416E-4,4.811096191E-2
3.121275085E1,-3.096669912E-3,1.700094342E-2,1.951408386E-2
3.122871154E1,-7.574290037E-3,9.779602289E-3,2.923393250E-2
3.124473327E1,4.547387362E-3,1.510018110E-2,3.171825409E-2
3.126072448E1,4.523903131E-3,1.456141472E-2,3.895854950E-2
3.127668518E1,-1.487827301E-2,-2.947121859E-3,3.669548035E-2
3.129267639E1,-2.815447748E-3,1.772263646E-2,1.774501801E-2
3.130860656E1,-4.977762699E-3,2.364629507E-2,5.384922028E-2
3.132450622E1,-3.122583032E-2,7.948309183E-3,3.967952728E-2
3.134052795E1,-6.845712662E-3,1.728355885E-3,3.508186340E-2
3.135642761E1,4.305317998E-4,9.116113186E-3,3.764915466E-2
3.137241882E1,5.096442997E-3,-1.383721828E-3,1.863193512E-2
3.138841003E1,-8.932776749E-3,-5.028545856E-4,3.071498871E-2
3.140440124E1,-6.675265729E-3,1.864016056E-3,4.277324677E-2
3.142033142E1,6.323456764E-4,-5.622923374E-3,2.129840851E-2
3.143635314E1,-1.384673268E-2,-1.104599237E-2,2.375793457E-2
3.145228332E1,2.648100257E-3,6.575226784E-3,3.097343445E-2
3.146830505E1,9.700879455E-3,9.896844625E-3,5.495166779E-2
3.148429626E1,-7.354058325E-3,-6.678938866E-3,5.026054382E-2
3.150028747E1,-1.228602231E-2,-2.322465181E-3,2.878665924E-2
3.151618713E1,-4.944190383E-3,-1.247805357E-2,3.151512146E-2
3.153217834E1,-2.406750619E-2,-1.356783509E-2,2.456474304E-2
3.154810852E1,1.159027219E-2,-1.440799236E-2,2.711391449E-2
3.156406921E1,1.390222460E-2,-1.429066062E-2,3.200054169E-2
3.158002990E1,3.997050226E-3,-7.198840380E-3,4.406642914E-2
3.159592956E1,-2.237916738E-2,-1.420900226E-2,3.938007355E-2
3.161192077E1,1.660272479E-3,1.207381487E-2,3.228855133E-2
3.162788146E1,-1.265899837E-2,-6.358474493E-3,3.959560394E-2
3.164387268E1,-5.567081273E-3,-1.623913646E-2,4.217147827E-2
3.165977233E1,1.575306058E-3,-2.113318443E-2,3.039264679E-2
3.167570251E1,-2.969227731E-3,-2.226206660E-2,1.378154755E-2
3.169172424E1,-5.509532988E-3,-1.129627228E-2,5.454254150E-2
3.170762390E1,-8.017338812E-3,-8.476734161E-3,3.780078888E-2
3.172355407E1,-1.290991902E-2,-1.461565495E-2,5.700016022E-2
3.173951477E1,1.561425626E-3,-4.842042923E-3,6.828308105E-3
3.175541442E1,8.615575731E-3,-2.922761440E-2,2.367210388E-2
3.177137512E1,-1.068102568E-2,-1.649400592E-2,3.088855743E-2
3.178733581E1,1.085475087E-2,-1.831626892E-2,4.527854919E-2
3.180329650E1,-3.653377295E-3,-1.253485680E-2,4.532146454E-2
3.181925720E1,-1.064993441E-2,-3.243204951E-2,4.778385162E-2
