"Time (s)","Linear Acceleration x (m/s^2)","Linear Acceleration y (m/s^2)","Linear Acceleration z (m/s^2)"
3.786406900E-2,-3.057360649E-2,-1.316511631E-2,6.356048584E-2
5.385528000E-2,-4.147204757E-2,-4.094690084E-2,1.090497971E-1
6.981597300E-2,-8.491349220E-2,-3.760474920E-2,1.044721603E-1
8.580718400E-2,-1.851108670E-2,-2.291333675E-2,7.792758942E-2
1.017678770E-1,-2.278709412E-2,-2.530610561E-2,1.641292572E-1
1.177896060E-1,-3.338304162E-2,5.621343851E-3,1.692161560E-1
1.337808170E-1,-2.565732598E-2,-4.229390621E-2,2.266426086E-1
1.497720280E-1,-2.825954556E-2,4.361331463E-3,3.243350983E-2
1.657632390E-1,-4.037383199E-2,-2.061948180E-2,1.094169617E-1
1.817239320E-1,-2.132925391E-2,4.729667306E-2,5.461025238E-2
1.976846260E-1,-4.597637057E-2,4.528152943E-2,5.572795868E-2
2.136453190E-1,8.445709944E-3,8.290952444E-2,2.993011475E-2
2.296060120E-1,7.126748562E-2,6.023362279E-2,-1.495037079E-1
2.455667060E-1,3.243973851E-2,4.509350657E-2,-9.884452820E-2
2.614968810E-1,8.013099432E-3,8.533149958E-2,-1.174936295E-1
2.775186100E-1,-1.104980707E-2,3.375422955E-2,1.204681396E-2
2.935098210E-1,-8.490929008E-2,-1.637262106E-2,4.397201538E-2
3.094705140E-1,-4.605865479E-2,-5.301719904E-2,2.402124405E-1
3.254312080E-1,-1.187684238E-1,-1.796948910E-2,2.112894058E-1
3.414224190E-1,-6.969901919E-2,-5.309167504E-2,7.474231720E-2
3.573831120E-1,-8.676719666E-2,-4.175388813E-2,1.536703110E-1
3.733132880E-1,4.390203953E-2,-4.579505324E-2,-7.145214081E-2
3.893350160E-1,6.373488903E-2,-3.359150887E-2,5.775928497E-2
4.053262270E-1,2.659183741E-2,-6.428980827E-2,-4.755687714E-2
4.212564030E-1,-1.672562957E-2,-6.946039200E-2,9.610176086E-2
4.373086490E-1,-8.189800382E-2,-4.415166378E-2,1.369190216E-1
4.533303770E-1,-9.235107899E-2,-3.235778213E-2,1.275053024E-1
4.693215880E-1,-4.362949729E-2,-2.545216680E-2,8.703517914E-2
4.853127990E-1,1.633977890E-2,7.712900639E-3,-9.490966797E-2
5.012734930E-1,3.149384260E-2,2.263596654E-2,-8.806228638E-3
5.172341860E-1,6.774973869E-2,3.315860033E-2,-1.309356689E-1
5.331948790E-1,7.031035423E-2,-1.808944345E-2,-3.023910522E-2
5.491555730E-1,6.631034613E-2,3.412365913E-3,5.802154541E-3
5.651162660E-1,7.432013750E-3,-3.194907308E-2,-5.872821808E-2
5.811379950E-1,6.717860699E-3,-9.744504094E-2,1.280279160E-1
5.970681700E-1,-2.132058144E-2,-1.252774596E-1,1.035690308E-3
6.130288640E-1,-9.316256642E-2,-7.568520308E-2,1.204900742E-1
6.290505920E-1,2.823731303E-2,-6.173476577E-2,1.034402847E-1
6.450112860E-1,-1.875221729E-2,-3.785702586E-2,1.078958511E-1
6.609719790E-1,6.611198187E-2,-5.127936602E-3,1.339359283E-1
6.769631900E-1,4.280221462E-2,-3.675937653E-3,9.541320801E-2
6.929544010E-1,7.942289114E-2,-7.451117039E-3,-1.473426819E-2
7.089150940E-1,4.734265804E-2,-8.884638548E-3,-2.668952942E-2
7.248757880E-1,-6.383717060E-3,3.675532341E-2,-1.476478577E-2
7.408975160E-1,-7.677847147E-2,-3.224501014E-2,1.761436462E-3
7.568582100E-1,1.111766696E-2,3.896379471E-2,-2.493381500E-2
7.728189030E-1,-4.757502675E-2,6.949353218E-2,5.725860596E-3
7.888101140E-1,1.028597355E-3,7.069468498E-2,3.169918060E-2
8.047708070E-1,-5.486994982E-2,2.005371451E-2,8.178997040E-2
8.207315010E-1,-5.359616876E-2,-4.982155561E-2,7.236099243E-2
8.366921940E-1,-2.760168910E-2,-3.004348278E-2,-2.318382263E-2
8.526528870E-1,-1.248656809E-1,6.396323442E-3,1.043701172E-2
8.686135810E-1,-4.406934977E-2,6.500855088E-2,4.150295258E-2
8.846047920E-1,-5.828854442E-2,1.217517555E-1,1.538047791E-1
9.005960020E-1,-3.245145082E-2,1.090362966E-1,4.590225220E-2
9.165566960E-1,-8.415669203E-3,5.384206772E-2,-2.061843872E-3
9.325173890E-1,4.627704620E-4,3.476750851E-2,-1.073465347E-1
9.485086000E-1,4.392385483E-3,2.403438091E-3,-7.620620728E-2
9.644692940E-1,-4.010796547E-3,3.533741832E-2,-2.115821838E-2
9.804299870E-1,-1.371312141E-2,1.203358173E-3,2.805709839E-3
9.963906800E-1,3.089895844E-2,4.635992646E-2,1.225023270E-1
1.012351374E0,5.339932442E-2,9.503471851E-2,1.956081390E-2
1.028312067E0,-1.512309909E-2,8.895647526E-2,2.673912048E-2
1.044303278E0,-2.900168300E-2,5.490604043E-2,1.223735809E-1
1.060325006E0,-1.886186004E-2,2.954310179E-2,9.833145142E-2
1.076285700E0,1.554843783E-2,6.334725022E-2,5.046272278E-2
1.092215876E0,9.855210781E-3,1.067445278E-1,-6.425189972E-2
1.108207086E0,-2.946248651E-2,7.460623980E-2,-7.596588135E-2
1.124198297E0,2.682125568E-2,1.010037661E-1,-4.006385803E-3
1.140128473E0,2.008885145E-3,7.650834322E-2,5.344867706E-2
1.156150202E0,-5.232530832E-2,8.846223354E-2,2.945423126E-2
1.172171930E0,-3.944978118E-2,5.334505439E-2,1.106920242E-1
1.188132624E0,-6.780916452E-2,4.579937458E-2,8.421134949E-2
1.204123835E0,-3.138521314E-2,2.475181222E-2,7.509231567E-3
1.220084528E0,-3.287371993E-2,1.353132725E-2,7.429122925E-3
1.236045221E0,-1.680630445E-2,1.486098766E-2,-6.446647644E-2
1.252005915E0,3.580033779E-2,9.138795733E-2,4.885673523E-3
1.267966608E0,-8.200249076E-2,8.609145880E-2,2.635478973E-2
1.283927301E0,-6.771647930E-2,6.903281808E-2,1.341896057E-1
1.299857477E0,-6.353968382E-2,4.678395391E-2,7.219886780E-2
1.315879206E0,-2.828055620E-2,2.366587520E-2,-1.609802246E-2
1.331900934E0,3.065803647E-2,4.983100295E-2,-3.041172028E-2
1.347892145E0,6.424301863E-2,1.078935862E-1,-6.395816803E-2
1.363852838E0,7.196101546E-2,1.137071550E-1,-1.166543961E-1
1.379813532E0,3.291401267E-2,1.158359647E-1,1.030921936E-2
1.395804743E0,5.745634437E-2,8.735927939E-2,-1.104068756E-2
1.411795954E0,2.151989937E-2,6.382307410E-2,-2.044868469E-2
1.427756647E0,-7.841563225E-2,1.492896676E-2,1.567935944E-1
1.443747858E0,6.786078215E-3,5.390685797E-2,1.568260193E-1
1.459769586E0,-4.068854451E-2,1.500536203E-1,1.855468750E-1
1.475699762E0,-2.024689317E-2,1.238015890E-1,7.554340363E-2
1.491660456E0,-8.711814880E-4,1.155556738E-1,1.569910049E-1
1.507651667E0,1.066824794E-2,1.085858643E-1,5.161094666E-2
1.523642877E0,-2.079913020E-2,9.540718794E-2,1.801872253E-2
1.539573053E0,-4.587709904E-3,9.306779504E-2,-3.938770294E-2
1.555594782E0,-3.552517295E-2,6.426009536E-2,-9.427356720E-2
1.571616510E0,7.644474506E-3,5.852270126E-2,-5.096340179E-2
1.587577204E0,4.142135382E-3,8.784887195E-2,-2.920722961E-2
1.603537897E0,3.593435884E-2,1.188880801E-1,1.400566101E-2
1.619559626E0,-2.801784873E-2,1.269983351E-1,1.647663116E-2
1.635520319E0,-2.977418900E-2,8.731880784E-2,1.424694061E-2
1.651481012E0,-3.028899431E-3,6.275427341E-2,3.831958771E-2
1.667441706E0,-5.022245646E-2,6.433412433E-2,-4.772281647E-2
1.683402399E0,1.186102629E-2,5.538326502E-2,-9.296703339E-2
1.699302057E0,-3.977906704E-2,1.019943655E-1,-4.241085052E-2
1.715354303E0,-4.726845026E-2,1.050218642E-1,3.215026855E-2
1.731345514E0,-4.419699311E-2,9.202292562E-2,8.278274536E-2
1.747306208E0,-1.807311177E-2,1.259630919E-1,8.553886414E-2
1.763266901E0,2.186709642E-2,9.563690424E-2,1.413536072E-2
1.779258112E0,-1.300737262E-2,8.759421110E-2,-3.586578369E-2
1.795249323E0,2.054899931E-2,9.701257944E-2,-4.634857178E-3
1.811210016E0,-3.279095888E-2,9.197035432E-2,4.572677612E-2
1.827170710E0,5.020678043E-3,4.705506563E-2,9.605979919E-2
1.843131403E0,1.541247964E-2,5.582818389E-2,1.416168213E-1
1.859061579E0,-7.913082838E-3,2.308517694E-2,7.956314087E-2
1.875113825E0,6.151106954E-2,7.308593392E-2,5.658149719E-3
1.891105036E0,1.724120975E-2,1.081526279E-1,-1.040706635E-1
1.907065729E0,1.073598862E-2,9.209915996E-2,-1.227941513E-1
1.923026422E0,-5.324015021E-2,1.491356194E-1,-1.031560898E-1
1.939017633E0,-3.012815118E-2,2.144910991E-1,-7.624053955E-2
1.954978327E0,-6.979966164E-2,1.807599366E-1,-6.127738953E-2
1.970939020E0,-1.555532217E-2,1.471792758E-1,-1.756954193E-2
1.986899713E0,-5.029207468E-2,1.307602823E-1,9.063816071E-2
2.002890924E0,-1.957300305E-2,1.683983803E-1,2.322311401E-1
2.018790583E0,-3.294736147E-2,1.068044603E-1,2.803535461E-1
2.034812311E0,4.243534803E-2,1.216569245E-1,2.158756256E-1
2.050834040E0,1.838430762E-2,8.973637223E-2,-3.270244598E-2
2.066794733E0,-2.045094967E-3,6.862097979E-2,-2.211837769E-1
2.082785944E0,-2.452251315E-2,4.299181700E-2,-1.703729630E-1
2.098746637E0,-6.767418981E-2,6.385666132E-2,5.016326904E-2
2.114737848E0,-8.067736030E-2,1.032748818E-1,8.870887756E-2
2.130698542E0,-3.475892544E-2,1.258744001E-1,1.608638763E-1
2.146659235E0,3.223088384E-2,1.274448037E-1,1.535987854E-2
2.162619928E0,-1.070350409E-2,1.321544051E-1,-1.990318298E-2
2.178550104E0,2.070954442E-2,1.079600453E-1,-6.952667236E-2
2.194602350E0,3.262439370E-2,1.059466004E-1,-3.088378906E-2
2.210593561E0,-3.602129221E-2,1.336026788E-1,9.836578369E-2
2.226554254E0,-7.146865129E-3,1.315019131E-1,1.245565414E-1
2.242514948E0,-5.460679531E-3,1.318062544E-1,1.243724823E-1
2.258536676E0,1.296329498E-2,6.016194820E-2,5.715560913E-2
2.274527887E0,-4.966288805E-3,3.060519695E-2,2.815055847E-2
2.290458063E0,4.258880019E-2,5.643540621E-2,1.820945740E-2
2.306449274E0,-3.860834241E-2,4.029470682E-2,1.278209686E-2
2.322409967E0,-4.775911570E-3,5.833721161E-2,6.227302551E-2
2.338309626E0,-4.740977287E-2,9.876960516E-2,1.356830597E-1
2.354331354E0,-2.781143785E-2,1.004040837E-1,1.157598495E-1
2.370353083E0,-4.794973135E-2,1.035992503E-1,1.101932526E-1
2.386313776E0,-1.276716590E-2,1.089014113E-1,4.253482819E-2
2.402274469E0,8.695200086E-2,1.094611585E-1,-5.373859406E-2
2.418326715E0,-2.404916286E-2,1.145355701E-1,-1.595697403E-1
2.434287409E0,3.887924552E-2,1.408059001E-1,-1.054496765E-1
2.450217585E0,-4.177284241E-2,8.791467547E-2,-7.676124573E-3
2.466208795E0,-2.950906754E-2,1.052800417E-1,-2.508735657E-2
2.482200006E0,-4.253822565E-2,1.008102894E-1,-2.077579498E-2
2.498130182E0,2.127864957E-2,8.076393604E-2,-1.121616364E-1
2.514151911E0,-1.893424988E-2,7.295474410E-2,-2.871990204E-2
2.530173639E0,-3.667473793E-4,1.250256002E-1,-7.450294495E-2
2.546134333E0,5.797177553E-3,1.338103414E-1,-2.930736542E-2
2.562125544E0,-2.125516534E-2,1.142497361E-1,2.086830139E-2
2.578086237E0,3.775379062E-2,9.278589487E-2,2.314662933E-2
2.594046930E0,-2.280670404E-2,3.594240546E-2,4.687500000E-2
2.610007624E0,1.694828272E-3,7.001641393E-2,7.067298889E-2
2.625968317E0,-4.578518867E-2,7.328343391E-2,1.207180023E-1
2.641929010E0,-1.952326298E-2,7.826155424E-2,1.394729614E-1
2.657859186E0,1.052060723E-2,8.642414212E-2,8.385658264E-2
2.673850397E0,1.865163445E-2,7.494285703E-2,3.773403168E-2
2.689841608E0,6.510096788E-2,8.653748035E-2,1.081562042E-2
2.705802301E0,3.443482518E-2,7.864233851E-2,-1.625061035E-3
2.721762995E0,4.344803095E-2,3.795462847E-2,-1.161289215E-2
2.737754206E0,-2.382582426E-2,1.327981055E-2,-5.512619019E-2
2.753714899E0,2.889722586E-2,3.559009731E-2,5.688762665E-2
2.769645075E0,-1.868143678E-2,3.409177065E-2,7.801055908E-2
2.785666803E0,-4.243692756E-2,6.212672591E-2,3.454208374E-2
2.801627497E0,-4.651534557E-2,4.195480049E-2,-1.616287231E-2
2.817557672E0,-6.637349725E-2,3.167188168E-2,4.915237427E-3
2.833579401E0,-5.044117570E-2,4.877030849E-3,-2.656936646E-2
2.849570612E0,-1.967021823E-2,4.412572086E-2,-2.868652344E-3
2.865531305E0,-1.749044657E-2,6.623124331E-2,-1.744079590E-2
2.881522516E0,3.976604342E-2,7.783266902E-2,-5.592250824E-2
2.897544245E0,1.450005174E-2,2.988435328E-2,-1.326417923E-1
2.913504938E0,-1.244577765E-2,-3.868132830E-3,1.093864441E-2
2.929435114E0,-6.672620773E-3,-7.229510695E-3,8.995723724E-2
2.945395807E0,-6.454902887E-2,-1.867309213E-3,1.139907837E-1
2.961387018E0,-3.872194886E-2,-3.512177616E-3,1.643953323E-1
2.977317194E0,-5.830937624E-2,-1.175060682E-2,7.107639313E-2
2.993338922E0,-5.055218935E-2,-2.974037826E-2,7.338333130E-2
3.009330133E0,-2.531549335E-2,1.203263365E-2,-9.737014771E-4
3.025290827E0,-1.433527470E-2,3.253373131E-2,6.586647034E-2
3.041251520E0,-3.445267677E-3,4.177251458E-2,1.948966980E-1
3.057273249E0,1.723170280E-4,1.599664241E-2,2.139167786E-1
3.073233942E0,-2.375394106E-2,2.102395892E-2,1.229562759E-1
3.089194635E0,3.690749407E-2,1.706238091E-2,5.357933044E-2
3.105155329E0,5.405262113E-2,3.316139430E-2,-7.334327698E-2
3.121146540E0,2.834931016E-2,6.833852828E-2,-1.165904999E-1
3.137107233E0,4.703634977E-2,2.692884952E-2,-2.582263947E-2
3.153098444E0,3.680402040E-2,6.111096591E-2,3.867626190E-2
3.169089655E0,1.297926903E-2,4.026548564E-2,6.024551392E-2
3.185019831E0,2.480110526E-2,4.577115178E-2,6.517601013E-2
3.201011042E0,1.208922267E-2,4.320058227E-2,9.884357452E-2
3.217063288E0,5.359429121E-2,6.760688126E-2,4.158115387E-2
3.233023981E0,4.312187433E-3,6.423351169E-2,-4.201602936E-2
3.248984674E0,5.683463812E-2,7.182599604E-2,3.229808807E-2
3.264945368E0,2.566269040E-2,7.226324081E-2,-1.163482666E-3
3.280936579E0,-1.985180378E-2,5.331206322E-2,-1.231107712E-1
3.296836237E0,-2.918422222E-2,4.796537757E-2,-7.484626770E-2
3.312888483E0,-7.749623060E-2,1.497715712E-3,4.784965515E-2
3.328879694E0,-2.478632331E-2,4.020249844E-2,4.133701324E-2
3.344840387E0,-1.792278886E-2,3.615280986E-2,4.194831848E-2
3.360801081E0,5.021482706E-3,3.669884801E-2,-4.123878479E-2
3.376822809E0,-8.151441813E-3,8.407735825E-2,4.862785339E-3
3.392814020E0,-3.176879883E-2,5.960237980E-2,2.463054657E-2
3.408805231E0,-5.091995001E-2,5.403605103E-2,4.207801819E-2
3.424765924E0,-3.994542360E-2,4.721927643E-2,6.421566010E-2
3.440726618E0,-2.743035555E-2,7.074582577E-2,7.919311523E-2
3.456717829E0,-1.746338606E-2,3.800699115E-2,1.990318298E-2
3.472678522E0,-9.416103363E-3,1.827073097E-2,-3.938007355E-2
3.488669733E0,1.178023219E-2,3.932958841E-2,-5.546474457E-2
3.504660944E0,4.022642970E-2,7.821792364E-2,3.159999847E-2
3.520621637E0,7.842034101E-3,6.720426679E-2,4.227161407E-2
3.536582331E0,2.941355109E-2,5.027633905E-2,1.344261169E-1
3.552543024E0,-1.950028539E-2,1.839995384E-3,1.427774429E-1
3.568503717E0,-2.212038636E-2,6.897151470E-3,1.199779510E-1
3.584464411E0,2.036198974E-2,3.420799971E-2,5.168151855E-2
3.600425104E0,5.027472973E-3,4.585301876E-2,2.395534515E-2
3.616324762E0,4.102867842E-2,8.112728596E-2,1.056194305E-2
3.632377008E0,1.008388400E-2,2.470672131E-2,1.939773560E-3
3.648368219E0,-3.331544995E-2,2.887117863E-2,-4.485988617E-2
3.664389948E0,-3.143146634E-2,4.201483727E-2,6.890010834E-2
3.680350641E0,7.475823164E-3,4.239344597E-2,1.059827805E-1
3.696311335E0,-1.669254899E-2,3.468734026E-2,1.261138916E-1
3.712272028E0,1.047638059E-2,-2.449572086E-3,4.791069031E-2
3.728202204E0,2.292406559E-2,-2.695399523E-2,-5.183315277E-2
3.744162897E0,-8.363229036E-2,6.211936474E-3,-1.738834381E-2
3.760123590E0,-6.136387587E-2,3.520548344E-2,-9.164810181E-3
3.776084284E0,-3.270763159E-2,5.645215511E-2,3.252601624E-2
3.792106012E0,-1.024842262E-3,6.764197350E-2,1.668453217E-2
3.808097223E0,3.788532317E-2,1.035793424E-1,3.437614441E-2
3.824027399E0,9.360015392E-4,9.913188219E-2,8.969306946E-3
3.840018610E0,3.015799820E-2,9.239107370E-2,5.539035797E-2
3.856040338E0,4.321187735E-3,4.964351654E-3,-4.402923584E-2
3.872001032E0,-5.092456937E-2,-7.526767254E-2,5.331993103E-3
3.887961725E0,-5.230316520E-2,-6.153422594E-2,7.417583466E-2
3.903922419E0,-2.386084199E-2,1.517981291E-2,1.957597733E-1
3.919913629E0,-1.605838537E-2,2.847617865E-2,1.400623322E-1
3.935843805E0,1.809445024E-2,2.622008324E-2,9.133052826E-2
3.951865534E0,4.595752060E-2,3.550946712E-2,8.790397644E-2
3.967887262E0,4.315435886E-3,5.760133266E-3,1.733493805E-2
3.983847956E0,-2.994847298E-2,-7.560729980E-3,9.048843384E-2
3.999839167E0,5.509704351E-3,3.354525566E-2,4.402637482E-2
4.015799860E0,-5.870342255E-3,5.083858967E-2,1.659202576E-2
4.031760553E0,3.044757247E-2,8.126753569E-2,-2.053451538E-2
4.047721247E0,7.433056831E-3,3.239071369E-2,1.164340973E-2
4.063681940E0,3.516082466E-2,2.836048603E-2,3.408622742E-2
4.079642633E0,2.102251351E-2,6.145441532E-2,4.920864105E-2
4.095572809E0,1.361966133E-5,3.800487518E-2,-2.907085419E-2
4.111594538E0,2.489668131E-2,5.280232430E-2,-4.019260406E-2
4.127585749E0,-2.727805078E-2,4.627645016E-2,-2.703285217E-2
4.143546442E0,1.099763811E-2,7.694959641E-2,4.133605957E-2
4.159507135E0,-5.809739232E-3,6.140971184E-2,3.775405884E-2
4.175528864E0,2.037677169E-2,4.257357121E-2,2.923583984E-2
4.191520075E0,9.725525975E-3,6.148374081E-2,5.176830292E-2
4.207480768E0,-5.576491356E-3,4.124915600E-2,9.627342224E-3
4.223441461E0,-1.552845538E-2,2.867281437E-2,8.014488220E-2
4.239402155E0,-1.956708729E-2,2.886688709E-2,2.868461609E-2
4.255332331E0,-2.725991607E-2,5.808103085E-2,5.380153656E-2
4.271354059E0,2.711662650E-2,7.486951351E-2,6.205368042E-2
4.287345270E0,-3.273870051E-2,3.346407413E-2,6.785106659E-2
4.303305963E0,-3.210455179E-3,1.122486591E-2,5.931186676E-2
4.319266657E0,-1.677915454E-2,2.016007900E-2,1.513423920E-1
4.335288385E0,5.223703384E-2,6.579792500E-2,3.012561798E-2
4.351249079E0,4.409819841E-2,2.944564819E-2,2.204895020E-3
4.367179254E0,3.817287087E-2,1.131796837E-2,7.933616638E-3
4.383200983E0,1.770809293E-3,3.223311901E-2,5.921554565E-2
4.399192194E0,-5.994151533E-2,1.262104511E-2,1.225223541E-1
4.415122370E0,-3.226041794E-2,3.455948830E-2,3.726959229E-2
4.431174616E0,-3.875792027E-5,7.466268539E-2,8.387851715E-2
4.447165827E0,4.753591120E-2,7.248806953E-2,-1.985549927E-3
4.463126520E0,2.205432951E-2,7.092034817E-2,5.888938904E-3
4.479087213E0,1.709462702E-2,7.486975193E-2,1.558303833E-3
4.495108942E0,-2.333875000E-2,8.171629906E-2,1.885128021E-2
4.511100153E0,-1.307570934E-2,5.293953419E-2,4.577064514E-2
4.527060846E0,4.432171583E-3,3.849589825E-2,3.198719025E-2
4.543021540E0,-2.238953114E-2,2.942562103E-3,1.526832581E-3
4.558982233E0,2.256873250E-2,5.047488213E-2,4.316520691E-2
4.574973444E0,-5.932205915E-2,7.592368126E-2,6.111335754E-2
4.590934137E0,-5.038976669E-3,1.289780140E-1,7.651996613E-2
4.606925348E0,-2.387423813E-2,7.015025616E-2,1.033210754E-1
4.622886042E0,4.035113752E-2,7.973337173E-2,6.293296814E-2
4.638877252E0,-1.338775456E-2,3.469932079E-2,1.541137695E-2
4.654837946E0,-2.685603499E-2,-6.305813789E-3,6.626510620E-2
4.670798639E0,7.202312350E-3,-9.289622307E-3,1.126117706E-1
4.686759333E0,-2.446450293E-2,-2.771055698E-2,8.875656128E-2
4.702720026E0,-1.514354348E-2,3.870952129E-2,9.824657440E-2
4.718680719E0,-1.301713288E-2,6.578207016E-2,5.459499359E-2
4.734580377E0,5.464147031E-2,1.191095114E-1,5.128479004E-2
4.750602106E0,3.866052628E-2,1.225746870E-1,-5.044460297E-2
4.766623835E0,2.519819140E-2,1.049774885E-1,-8.766174316E-3
4.782584528E0,-3.994762897E-2,1.336578131E-1,4.047393799E-3
4.798545221E0,-3.612391651E-2,9.671735764E-2,-6.748771667E-2
4.814566950E0,1.292105019E-2,8.415269852E-2,1.807975769E-2
4.830527643E0,-2.908267081E-2,8.242690563E-2,2.607440948E-2
4.846457819E0,-6.523923576E-2,6.903481483E-2,1.549224854E-1
4.862449030E0,-4.784578085E-2,8.062779903E-2,1.804199219E-1
4.878440241E0,-4.221335053E-2,6.809353828E-2,1.316328049E-1
4.894370417E0,-3.807044029E-2,4.431390762E-2,1.498918533E-1
4.910422663E0,3.654599190E-3,5.668854713E-2,1.130504608E-1
4.926413874E0,-2.181987464E-2,7.763171196E-2,-5.315780640E-3
4.942374567E0,4.077215493E-2,9.730911255E-2,8.206081390E-2
4.958335260E0,7.872103155E-2,1.002078056E-1,7.342243195E-2
4.974356989E0,-9.285697341E-2,3.324270248E-2,1.186180115E-2
4.990317682E0,1.185110211E-2,5.152058601E-2,1.971435547E-2
5.006247858E0,-3.529036045E-2,3.215432167E-2,-1.081466675E-3
5.022239069E0,-3.680580854E-2,6.458508968E-2,8.356285095E-2
5.038230280E0,-3.799118102E-2,5.846607685E-2,3.163146973E-2
5.054129938E0,2.173870802E-3,1.051052809E-1,1.350021362E-1
5.070151667E0,-6.797075272E-3,1.108245850E-1,3.951549530E-2
5.086173395E0,4.489678144E-2,1.367785335E-1,-1.765918732E-2
5.102195124E0,4.823416471E-2,1.050445437E-1,1.619911194E-2
5.118155817E0,6.503988802E-2,1.326131821E-1,5.720710754E-2
5.134116510E0,4.649361968E-2,1.149219275E-1,-9.690284729E-3
5.150107721E0,-3.181287646E-2,1.187414527E-1,4.815101624E-3
5.166068415E0,-4.718099535E-2,8.706539869E-2,-4.737472534E-2
5.182059626E0,-4.176349938E-2,7.586526871E-2,1.090602875E-1
5.198020319E0,-7.812476158E-2,1.011080146E-1,9.556198120E-2
5.214042047E0,-4.123181105E-3,8.154606819E-2,6.756973267E-2
5.230033258E0,1.347371936E-2,8.511149883E-2,8.431434631E-3
5.245993952E0,-3.291881084E-2,8.213692904E-2,-3.252029419E-4
5.261954645E0,4.766434431E-2,1.131350398E-1,-2.072429657E-2
5.277915338E0,-2.458532155E-2,1.305409670E-1,3.340053558E-2
5.293845514E0,-5.595631897E-2,1.565976739E-1,7.090759277E-2
5.309867243E0,-8.982911706E-3,1.197297573E-1,9.877681732E-2
5.325858454E0,-1.941424608E-2,9.093856812E-2,3.795146942E-2
5.341819147E0,-1.796546578E-2,1.147455573E-1,-1.568698883E-2
5.357810358E0,1.255780458E-3,1.497437358E-1,3.838920593E-2
5.373771051E0,-3.245039284E-2,1.311560869E-1,9.738349915E-2
5.389731745E0,-1.248300076E-2,1.463873982E-1,2.016878128E-1
5.405692438E0,-1.821599901E-2,1.586630344E-1,1.980085373E-1
5.421653131E0,1.970042288E-2,1.122511625E-1,4.805469513E-2
5.437613825E0,-1.537039876E-2,5.853676796E-2,-8.638381958E-3
5.453544001E0,-1.979783177E-3,9.853076935E-2,-1.017475128E-2
5.469565729E0,-4.510638118E-2,1.183518171E-1,-4.980373383E-2
5.485587458E0,-4.832714796E-3,1.344277859E-1,-6.538295746E-2
5.501517633E0,-1.091495156E-3,1.654322147E-1,1.894760132E-2
5.517508844E0,2.428863943E-2,1.915007532E-1,3.986740112E-2
5.533500055E0,3.239165246E-2,1.612687111E-1,2.183437347E-2
5.549491266E0,1.400324702E-2,1.688237488E-1,3.254127502E-2
5.565451960E0,-2.261540294E-2,1.396726072E-1,7.918548584E-2
5.581412653E0,1.364742219E-2,1.487405300E-1,8.028316498E-2
5.597373346E0,7.515653968E-3,1.797567606E-1,4.305076599E-2
5.613303522E0,-3.530596197E-2,1.389511824E-1,-1.083278656E-2
5.629325251E0,-2.045552433E-2,1.269578636E-1,3.602600098E-2
5.645346979E0,-4.461075366E-2,1.155300140E-1,-2.468681335E-2
5.661277155E0,-3.608086705E-2,1.250218153E-1,1.301755905E-1
5.677298883E0,-9.770333767E-3,1.408791393E-1,1.605148315E-1
5.693259577E0,3.986905515E-2,1.427766830E-1,1.906709671E-1
5.709220270E0,-2.699366212E-2,1.695035398E-1,1.464262009E-1
5.725180963E0,3.611521423E-2,1.690533757E-1,1.599311829E-2
5.741141657E0,-9.555163980E-2,1.446915567E-1,-3.047275543E-2
5.757071833E0,2.408535779E-2,1.686233431E-1,-7.440471649E-2
5.773032526E0,-2.702693641E-2,1.161430478E-1,-1.062173843E-1
5.789054254E0,-1.368726790E-2,1.394571662E-1,2.727413177E-2
5.805075983E0,-5.806596577E-2,1.278463304E-1,-3.302955627E-2
5.821036676E0,-6.944628060E-2,1.317238212E-1,-9.082031250E-2
5.837027887E0,-3.103151917E-2,1.261079460E-1,-6.469058990E-2
5.852988581E0,-4.524630308E-2,1.706550717E-1,1.219158173E-1
5.868949274E0,-2.751757205E-2,1.949392557E-1,1.169395447E-2
5.884909967E0,-6.306101382E-2,1.435515583E-1,5.717658997E-2
5.900870661E0,-2.787226439E-2,1.554663181E-1,1.415252686E-2
5.916800836E0,-8.657231927E-2,1.494816244E-1,2.867698669E-2
5.932761530E0,-1.893323660E-2,1.692335606E-1,2.523422241E-3
5.948752741E0,-7.286086679E-2,1.313715279E-1,1.055860519E-1
5.964743952E0,2.816964686E-2,2.042362690E-1,1.655263901E-1
5.980704645E0,1.723486185E-2,1.958857179E-1,1.417093277E-1
5.996634821E0,3.630372882E-2,1.901543438E-1,1.036167145E-1
6.012656549E0,-4.694439471E-2,1.338037550E-1,-5.400180817E-2
6.028617243E0,4.310914874E-2,1.156805456E-1,-1.204700470E-1
6.044547419E0,1.291108131E-2,1.282387376E-1,-3.852462769E-2
6.060538629E0,-5.051743984E-2,1.464654356E-1,4.574966431E-2
6.076468805E0,-2.554890513E-2,1.483691037E-1,-6.474494934E-3
6.092429499E0,3.372146189E-2,2.177831829E-1,1.472110748E-1
6.108420710E0,1.561838388E-2,2.306283712E-1,1.118555069E-1
6.124411920E0,-1.695388556E-2,1.908379793E-1,6.480598450E-2
6.140372614E0,5.444392562E-3,1.715622842E-1,-3.565788269E-3
6.156333307E0,-1.551067829E-2,1.836163700E-1,3.588867188E-2
6.172324518E0,-6.430804729E-3,1.689851582E-1,-4.183387756E-2
6.188346247E0,-3.971430659E-2,1.467882693E-1,-1.050596237E-1
6.204337458E0,1.129664481E-2,1.576779485E-1,-9.644222260E-2
6.220359186E0,-1.335670054E-2,2.195608020E-1,-1.609802246E-2
6.236319879E0,-5.074189603E-2,2.482398152E-1,4.039192200E-2
6.252280573E0,-1.687766612E-2,2.049928308E-1,-2.027320862E-2
6.268241266E0,-2.678443491E-2,1.878816485E-1,6.278705597E-2
6.284201960E0,-3.749960661E-2,1.579451561E-1,2.146053314E-2
6.300162653E0,-6.047025323E-2,1.467880607E-1,-2.216339111E-2
6.316123346E0,-5.444979668E-2,1.593121290E-1,-4.174041748E-2
6.332023004E0,-3.851234913E-2,1.634561419E-1,-1.067485809E-1
6.348075251E0,9.462729096E-3,1.924338937E-1,-1.432247162E-1
6.364066461E0,2.721354365E-3,2.241014838E-1,-4.108428955E-2
6.380088190E0,-2.749499679E-2,1.966598630E-1,1.025085449E-1
6.396048883E0,-1.388803124E-2,1.960856915E-1,7.222938538E-2
6.412009577E0,9.669780731E-3,1.734075546E-1,1.651763916E-2
6.428000788E0,6.916061044E-3,1.710950732E-1,6.130599976E-2
6.443961481E0,-3.818213940E-3,1.723697186E-1,3.179073334E-2
6.459952692E0,2.018818259E-2,1.650079489E-1,-4.984855652E-3
6.475882868E0,-3.536045551E-4,1.733601689E-1,-2.469635010E-2
6.491904596E0,5.001947284E-3,1.729250550E-1,5.827903748E-3
6.507865290E0,3.158189356E-2,1.541459560E-1,-4.742813110E-2
6.523825983E0,1.455007493E-2,1.469679475E-1,-7.445812225E-2
6.539786676E0,-1.795643568E-2,1.574434042E-1,2.491855621E-2
6.555747370E0,-3.759512305E-2,1.584795117E-1,2.269744873E-1
6.571647028E0,1.695218682E-2,1.676904559E-1,1.226568222E-1
6.587699274E0,-5.546420813E-2,1.483540535E-1,2.329063416E-2
6.603690485E0,-4.365906119E-2,1.208911538E-1,-1.376724243E-2
6.619651178E0,4.174798727E-3,1.364092827E-1,-2.907752991E-3
6.635642389E0,-2.912107110E-2,1.605889797E-1,-1.341247559E-2
6.651603083E0,-2.182212472E-2,2.024282217E-1,-1.410198212E-2
6.667594294E0,-1.957613230E-2,2.021116018E-1,-6.476497650E-2
6.683585504E0,3.526203334E-2,2.236070633E-1,6.679534912E-3
6.699546198E0,3.161755204E-2,1.885293722E-1,-4.660224915E-2
6.715537409E0,-2.655196190E-2,1.531342268E-1,-3.317165375E-2
6.731589655E0,-2.211052179E-2,1.292681694E-1,1.597976685E-2
6.747550348E0,-7.909023762E-2,1.329263449E-1,3.869724274E-2
6.763480524E0,-4.427590966E-2,1.545423269E-1,-1.017379761E-2
6.779441217E0,-1.027311385E-1,1.319563389E-1,8.207321167E-3
6.795432428E0,-1.064121723E-2,1.611204147E-1,-9.203910828E-3
6.811362604E0,7.982194424E-3,1.754941940E-1,4.516887665E-2
6.827414850E0,5.122753978E-2,1.506919861E-1,-2.487754822E-2
6.843406061E0,2.996066213E-2,1.350827217E-1,-1.344585419E-2
6.859366754E0,6.894588470E-3,1.252328157E-1,-1.384973526E-1
6.875357965E0,1.432231069E-2,1.798154116E-1,4.749488831E-2
6.891318659E0,-2.614301443E-2,1.900953054E-1,-1.318168640E-2
6.907279352E0,-2.073672414E-2,1.240175962E-1,9.126472473E-2
6.923240045E0,-3.674858809E-2,1.452622414E-1,3.301715851E-2
6.939200739E0,-1.382902265E-2,1.672263145E-1,-4.898834229E-2
6.955161432E0,-1.228502393E-2,1.175557375E-1,-1.705169678E-3
6.971091608E0,3.543576598E-2,1.409231424E-1,2.358436584E-3
6.987113336E0,7.837064564E-2,1.337994337E-1,-2.684211731E-2
7.003104547E0,4.489694536E-2,1.017144918E-1,-3.193378448E-2
7.019095758E0,-2.382740378E-2,1.128045321E-1,-7.077217102E-2
7.035056452E0,2.587595582E-2,1.427453756E-1,3.858661652E-2
7.051047663E0,-3.820949793E-2,1.036072969E-1,1.827239990E-3
7.067008356E0,-2.601325512E-3,1.649138927E-1,-5.169010162E-2
7.082969049E0,-4.363667965E-2,1.411015987E-1,-4.317283630E-2
7.098929743E0,-1.525005698E-2,1.619783640E-1,8.244037628E-2
7.114890436E0,3.179696202E-2,1.305751801E-1,1.006689072E-1
7.130820612E0,4.831492901E-3,1.557714939E-1,-5.037307739E-3
7.146842340E0,-2.333825827E-2,1.476392746E-1,-9.879112244E-3
7.162833551E0,-4.096588492E-2,1.376442909E-1,-7.220554352E-2
7.178824762E0,-1.017549634E-2,1.371856928E-1,-6.541252136E-2
7.194815973E0,-3.318983316E-2,1.559011936E-1,-3.506183624E-2
7.210776667E0,-5.115389824E-3,1.592950821E-1,6.922721863E-3
7.226767877E0,-4.661628604E-2,1.696785688E-1,-3.246212006E-2
7.242728571E0,1.807826757E-2,1.366343498E-1,-4.302978516E-2
7.258689264E0,-1.406174898E-2,1.254647970E-1,-3.395080566E-3
7.274680475E0,-3.154024482E-2,1.641089916E-1,5.203247070E-3
7.290671686E0,-6.380110979E-3,1.625926495E-1,3.609180450E-2
7.306632379E0,-7.813751698E-3,1.778641939E-1,-5.982875824E-2
7.322623590E0,-8.695423603E-4,1.504597664E-1,-1.441707611E-1
7.338645319E0,-5.583408475E-2,1.378281116E-1,-2.551269531E-2
7.354606012E0,1.185303926E-2,1.337434053E-1,1.625728607E-2
7.370566706E0,-4.801747203E-2,1.429262161E-1,6.058216095E-2
7.386557917E0,-2.428051829E-2,1.647384167E-1,5.977916718E-2
7.402518610E0,-2.666383982E-3,1.527811289E-1,3.788471222E-2
7.418479303E0,4.922837019E-3,1.415677071E-1,-4.348087311E-2
7.434470514E0,6.242752075E-3,1.483908892E-1,-9.627819061E-2
7.450492243E0,-1.011773944E-2,1.673974991E-1,-1.171112061E-3
7.466452936E0,-5.181378126E-2,1.277358532E-1,-2.361965179E-2
7.482413629E0,-1.104167104E-2,1.177647114E-1,-3.174781799E-3
7.498404840E0,-4.042965174E-2,1.036767960E-1,1.234722137E-2
7.514365534E0,5.878239870E-3,1.073265076E-1,-9.727478027E-4
7.530326227E0,1.547023654E-2,9.710085392E-2,2.192401886E-2
7.546286920E0,-1.404359937E-2,9.829747677E-2,7.088661194E-3
7.562217096E0,-1.406273246E-2,1.250216961E-1,4.405021667E-3
7.578208307E0,1.806741953E-2,1.327909231E-1,2.074241638E-3
7.594199518E0,2.077224851E-2,1.153062582E-1,-7.903575897E-2
7.610160211E0,6.105938554E-2,1.340340376E-1,-1.744804382E-1
7.626120905E0,-3.438442945E-2,1.532615423E-1,-1.411123276E-1
7.642112116E0,2.046892047E-2,1.945257187E-1,-7.538795471E-3
7.658072809E0,-5.156975985E-2,1.944617033E-1,6.106376648E-3
7.674033502E0,8.701562881E-3,1.504111290E-1,9.364032745E-2
7.689963678E0,-4.739734530E-2,8.921170235E-2,2.504253387E-2
7.705985407E0,-6.430086493E-2,1.009238958E-1,6.392669678E-2
7.721915583E0,-1.573088765E-2,1.084237099E-1,6.875038147E-3
7.737906794E0,-8.797347546E-3,1.576175690E-1,1.266803741E-1
7.753898004E0,-2.288252115E-3,9.359860420E-2,-4.540157318E-2
7.769828180E0,2.364626527E-2,7.081067562E-2,6.485080719E-2
7.785880426E0,1.403951645E-2,8.034181595E-2,-1.619434357E-2
7.801871637E0,-1.867175102E-3,1.222860813E-1,-4.388427734E-2
7.817893366E0,-5.092984438E-2,9.932088852E-2,-2.353000641E-2
7.833823542E0,-4.921457171E-2,1.244674921E-1,-3.641128540E-3
7.849814752E0,-8.294939995E-3,1.122702360E-1,1.601028442E-2
7.865775446E0,3.357827663E-3,1.302709579E-1,-9.675025940E-3
7.881705622E0,-1.142221689E-2,1.159340143E-1,-6.386375427E-2
7.897696833E0,4.542142153E-3,1.139341593E-1,-5.109786987E-2
7.913657526E0,-4.509589076E-2,9.729969501E-2,-6.465148926E-2
7.929587702E0,-1.254135370E-2,1.209384203E-1,-1.477241516E-3
7.945639948E0,2.537897229E-2,1.309808493E-1,-6.716346741E-2
7.961631159E0,3.074848652E-2,1.045163870E-1,-3.019809723E-2
7.977652887E0,2.876162529E-2,8.320808411E-2,-6.513404846E-2
7.993583063E0,-1.592594385E-2,1.102768183E-1,-4.507827759E-2
8.009543756E0,-3.304681182E-2,1.231588125E-1,5.869770050E-2
8.025504450E0,-4.292777181E-2,8.989870548E-2,1.462173462E-2
8.041465143E0,-7.578432560E-4,7.083475590E-2,-1.746845245E-2
8.057425836E0,1.595884562E-2,9.499084949E-2,-4.724311829E-2
8.073386530E0,1.992627978E-2,1.144112349E-1,-1.176595688E-1
8.089316706E0,-8.732616901E-3,1.259784698E-1,-7.105731964E-2
8.105368952E0,-5.882909894E-2,1.041941643E-1,4.448509216E-2
8.121390680E0,-2.412724495E-2,1.435207129E-1,5.926609039E-2
8.137412409E0,-2.531173825E-2,1.096893549E-1,4.558181763E-2
8.153373102E0,-1.790991426E-2,1.005276442E-1,1.781940460E-2
8.169333795E0,-7.742047310E-4,5.248939991E-2,-9.361648560E-2
8.185325006E0,-3.836801648E-2,8.120465279E-2,-6.906700134E-2
8.201285700E0,-4.428425431E-2,6.567978859E-2,1.214599609E-2
8.217246393E0,-3.839462996E-2,1.032818556E-1,4.766941071E-2
8.233207086E0,3.735396266E-2,9.107077122E-2,-5.048179626E-2
8.249137262E0,3.257989883E-4,1.233742237E-1,-7.891750336E-2
8.265158991E0,3.063574433E-2,1.067434549E-1,-4.286003113E-2
8.281180719E0,2.978795767E-2,8.845138550E-2,3.088855743E-2
8.297141413E0,-5.904302001E-2,5.987930298E-2,-5.139350891E-2
8.313102106E0,-2.958303690E-2,7.152986526E-2,5.024242401E-2
8.329123835E0,-4.838874936E-2,6.847512722E-2,1.154499054E-1
8.345084528E0,-2.544963360E-2,6.988167763E-2,7.522296906E-2
8.361014704E0,5.348879099E-2,1.745504141E-1,-6.989479065E-2
8.377005915E0,5.900299549E-2,1.984223127E-1,-1.145324707E-1
8.392997126E0,6.964001060E-2,1.111998558E-1,-1.095037460E-1
8.408927301E0,-2.586805820E-2,8.544039726E-2,1.445484161E-2
8.424918512E0,-8.099016547E-2,8.969306946E-2,2.243757248E-1
8.440909723E0,-4.289835691E-2,1.557302475E-2,7.791042328E-2
8.456900934E0,-1.280263066E-2,2.071619034E-3,-4.910945892E-2
8.472892145E0,3.017365932E-2,2.040922642E-2,-7.095623016E-2
8.488913874E0,1.273745298E-2,4.349362850E-2,-1.123857498E-1
8.504874567E0,2.496361732E-2,8.538794518E-2,-1.206903458E-1
8.520835260E0,-6.836655736E-2,1.309258938E-1,-5.726909637E-2
8.536826471E0,-8.600780368E-2,1.239213943E-1,4.223155975E-2
8.552817682E0,-1.884022355E-2,9.840321541E-2,1.325387955E-1
8.568747858E0,-2.081483603E-2,1.241717339E-1,7.261466980E-2
8.584769586E0,5.228608847E-3,1.151273251E-1,-7.518005371E-2
8.600791315E0,5.382210016E-3,1.396763325E-1,-1.151285172E-1
8.616752008E0,2.755299211E-2,1.049921513E-1,-2.153186798E-1
8.632712702E0,6.103497744E-2,8.283281326E-2,-9.614086151E-2
8.648734430E0,4.271811247E-2,1.331222057E-2,-9.038448334E-2
8.664695124E0,2.722212672E-2,3.158187866E-2,2.484226227E-2
8.680625299E0,-2.011471987E-2,6.186485291E-3,7.758426666E-2
8.696616510E0,-2.612859011E-2,3.153383732E-2,-6.284713745E-3
8.712577204E0,-4.881536961E-2,4.053258896E-2,6.303119659E-2
8.728537897E0,-9.758025408E-3,4.443252087E-2,1.393880844E-1
8.744559626E0,-2.903658152E-2,3.527283669E-2,3.880977631E-2
8.760550836E0,5.509734154E-3,-8.651137352E-3,5.506515503E-3
8.776511530E0,-1.073253155E-2,-6.714105606E-3,-1.570510864E-2
8.792502741E0,-4.127621651E-5,-8.907198906E-3,8.696556091E-3
8.808554987E0,-2.864068747E-2,1.561975479E-2,-2.904605865E-2
8.824515680E0,-2.559733391E-2,2.314686775E-3,1.698112488E-2
8.840445856E0,-1.207900047E-2,4.264426231E-2,-1.837062836E-2
8.856437067E0,1.100501418E-2,2.403736115E-2,-1.033496857E-2
8.872428278E0,5.850821733E-3,-1.711201668E-2,6.968116760E-2
8.888327936E0,5.461812019E-3,-1.626145840E-2,2.027034760E-2
8.904380182E0,5.658686161E-3,1.998758316E-2,6.875038147E-3
8.920371393E0,-1.755452156E-2,3.843545914E-3,1.299095154E-2
8.936362604E0,-1.934787631E-2,-3.529691696E-2,-5.949497223E-2
8.952323297E0,5.810177326E-2,-1.037883759E-2,-7.251739502E-3
8.968283991E0,-3.101420403E-2,-1.420497894E-2,-9.959220886E-3
8.984244684E0,-8.812427521E-3,-4.824578762E-3,-1.985073090E-2
9.000205377E0,-1.967731118E-2,4.858517647E-2,8.510875702E-2
9.016166071E0,-2.226689458E-2,2.465695143E-2,5.131340027E-2
9.032157282E0,-1.717406511E-2,-5.656480789E-4,1.185035706E-1
9.048179010E0,1.575767994E-3,-1.241666079E-2,-2.239227295E-2
9.064139704E0,1.409670711E-2,-3.337430954E-2,-4.262924194E-4
9.080100397E0,2.519306540E-2,4.023075104E-3,1.669025421E-2
9.096091608E0,-4.451230168E-2,-2.889633179E-3,-2.596569061E-2
9.112052301E0,-6.298059225E-2,-2.906519175E-2,3.914451599E-2
9.128012995E0,-6.818443537E-2,1.284092665E-2,1.449317932E-1
9.144004206E0,-5.756372213E-2,2.014589310E-2,1.048059464E-1
9.159995417E0,-2.100783587E-2,4.874503613E-2,9.571170807E-2
9.175956110E0,3.213754296E-2,2.930682898E-2,1.717948914E-2
9.191916803E0,5.090236664E-4,1.125580072E-2,7.951736450E-3
9.207938532E0,-1.132369041E-2,1.395261288E-2,6.099987030E-2
9.223868708E0,-3.209453821E-2,-7.099866867E-3,1.369667053E-2
9.239829401E0,4.658699036E-3,-1.085659862E-2,-5.738162994E-2
9.255820612E0,4.598766565E-3,-1.048573852E-2,-7.579612732E-2
9.271781305E0,1.873573661E-2,2.549797297E-2,2.064132690E-2
9.287741999E0,-3.556725383E-2,6.401717663E-3,-1.212406158E-2
9.303702692E0,-1.994794607E-2,-8.159250021E-3,-3.754615784E-2
9.319693903E0,-3.060698509E-5,-2.521809936E-2,1.191082001E-1
9.335685114E0,-1.696553826E-2,-8.452355862E-3,4.624748230E-2
9.351645807E0,-3.026756644E-2,8.830159903E-3,-6.454181671E-2
9.367667536E0,3.052923083E-2,5.128577352E-3,4.263114929E-2
9.383628229E0,-1.329779625E-2,-2.212888002E-2,2.046775818E-2
9.399588922E0,1.294016838E-3,-8.794873953E-3,9.891700745E-2
9.415610651E0,-3.898411989E-3,-3.275685012E-2,2.965927124E-4
9.431571344E0,-2.164819837E-2,-7.499940693E-3,8.842563629E-2
9.447532038E0,-1.443791389E-2,-1.966416836E-2,7.134819031E-2
9.463523249E0,1.737764478E-2,7.260330021E-3,-8.678627014E-2
9.479514460E0,-2.403759956E-2,-1.030382235E-2,-3.651523590E-2
9.495475153E0,-2.090939879E-2,-3.816387802E-2,3.056240082E-2
9.511496881E0,-4.594859481E-2,-1.862796769E-2,1.862459183E-1
9.527457575E0,-4.514089227E-2,-2.025424689E-2,1.193914413E-1
9.543418268E0,-7.049530745E-3,-5.510799587E-3,5.013942719E-2
9.559378961E0,8.411526680E-3,3.144562244E-3,-3.348445892E-2
9.575339655E0,2.023708820E-2,1.674458385E-2,3.612327576E-2
9.591300348E0,-1.637709141E-2,2.961012721E-2,-2.106285095E-2
9.607230524E0,-4.632443190E-3,5.346095562E-2,-3.902435303E-3
9.623221735E0,1.350921392E-2,4.291072488E-2,-9.431266785E-2
9.639243463E0,-1.993238926E-3,5.461066961E-3,-1.294927597E-1
9.655234674E0,1.770231128E-2,-2.581535280E-2,-1.141901016E-1
9.671225885E0,1.084637642E-2,-1.925995946E-2,5.681514740E-2
9.687186579E0,-3.728201985E-2,-1.573246717E-2,7.231426239E-2
9.703177790E0,-5.508568883E-2,-1.503053308E-2,1.764469147E-1
9.719169001E0,-3.080397844E-2,2.433300018E-3,2.134075165E-1
9.735129694E0,-6.025582552E-3,2.899438143E-3,1.566982269E-1
9.751120905E0,-9.750604630E-3,-3.304898739E-2,3.049945831E-2
9.767142633E0,7.056683302E-3,-1.483055949E-2,4.561519623E-2
9.783072809E0,2.445647120E-2,-2.739262581E-2,-8.753776550E-2
9.799033502E0,-4.054483771E-2,1.096108556E-2,6.196022034E-2
9.815024713E0,-5.094376206E-2,1.137703657E-2,7.285690308E-2
9.830985407E0,-5.338013172E-2,4.148602486E-3,1.029996872E-1
9.846946100E0,-3.502026200E-2,1.595711708E-2,1.090326309E-1
9.862967829E0,-1.170906425E-2,4.374206066E-3,1.386833191E-1
9.878989557E0,-9.318083525E-3,3.467667103E-2,1.588315964E-1
9.894919733E0,5.535146594E-2,1.588463783E-4,-4.195022583E-2
9.910910944E0,6.583943963E-2,4.708528519E-3,-8.924007416E-2
9.926932672E0,-3.959211707E-2,-1.723527908E-3,-9.484291077E-3
9.942893366E0,6.828695536E-3,6.675720215E-5,9.213829041E-2
9.958854059E0,-2.093958855E-2,4.674613476E-3,8.130741119E-2
9.974814752E0,-4.899463058E-2,4.442405701E-2,1.348333359E-1
9.990775446E0,-1.220700145E-2,4.559516907E-2,6.130599976E-2
1.000670562E1,3.486475348E-2,7.707238197E-3,2.846240997E-2
1.002269683E1,1.506111026E-2,1.205021143E-2,-3.777217865E-2
1.003871856E1,-3.315109015E-2,3.246736526E-2,-9.675788879E-2
1.005467925E1,-2.301612496E-2,6.910675764E-2,9.096431732E-2
1.007063995E1,1.245683432E-2,7.727175951E-2,1.780395508E-1
1.008666168E1,4.260808229E-3,4.968452454E-2,1.235790253E-1
1.010262237E1,-3.914538026E-2,3.147053719E-2,-3.871059418E-2
1.011858306E1,4.918420315E-2,1.277530193E-2,-5.958461761E-2
1.013454376E1,-2.753308415E-2,-1.346319914E-2,-9.924888611E-2
1.015053497E1,-5.339011550E-2,1.308578253E-2,8.888912201E-2
1.016652618E1,-1.272788346E-1,2.592873573E-2,2.818937302E-1
1.018248687E1,1.545533538E-2,6.673425436E-2,2.925395966E-1
1.019844756E1,2.455970645E-2,4.835385084E-2,5.775451660E-3
1.021443878E1,7.583010197E-2,7.025963068E-2,-8.951568604E-2
1.023039947E1,2.495706081E-2,2.689480782E-2,-1.055774689E-1
1.024636016E1,1.367002726E-2,3.198313713E-2,-1.127433777E-2
1.026238189E1,-2.858370543E-2,1.772314310E-2,9.739971161E-2
1.027840362E1,5.592286587E-3,2.482426167E-2,1.413707733E-1
1.029439483E1,-4.858708382E-2,2.866262197E-2,6.791400909E-2
1.031038604E1,1.775750518E-2,3.855460882E-2,-3.215789795E-3
1.032631622E1,-6.905436516E-3,4.776757956E-2,-2.877807617E-2
1.034233795E1,-2.763837576E-2,1.999795437E-2,1.771831512E-2
1.035835967E1,-1.420503855E-2,4.500299692E-2,1.721391678E-1
1.037432037E1,-4.423588514E-2,5.488830805E-2,1.277723312E-1
1.039031158E1,-2.147772908E-2,6.268197298E-2,1.311073303E-1
1.040627227E1,-6.362852454E-2,2.614581585E-2,7.686042786E-2
1.042223297E1,9.182959795E-3,5.377131701E-2,1.207389832E-1
1.043819366E1,3.466576338E-3,4.970008135E-2,9.275913239E-2
1.045415435E1,-2.193927765E-3,5.732572079E-2,5.270385742E-2
1.047011504E1,1.124560833E-2,6.527554989E-2,4.133415222E-2
1.048610626E1,9.265840054E-3,3.467726707E-2,-1.185283661E-1
1.050206695E1,2.582877874E-2,9.243172407E-2,6.650352478E-2
1.051802764E1,-5.245420337E-2,2.019250393E-2,9.100723267E-2
1.053401885E1,-9.480068088E-2,-4.457354546E-3,-1.164216995E-1
1.055001006E1,3.865364194E-2,8.454030752E-2,1.141185760E-1
1.056594024E1,-6.790912151E-2,8.609265089E-2,1.179790497E-2
1.058196197E1,2.837926149E-3,1.225834489E-1,4.345512390E-2
1.059798370E1,8.819788694E-3,6.971728802E-2,1.757049561E-2
1.061394439E1,-4.976987839E-5,2.764475346E-2,8.491897583E-2
1.062993560E1,-4.479408264E-3,2.507066727E-2,-2.017593384E-2
1.064589630E1,-8.662959933E-2,3.472006321E-2,1.605510712E-2
1.066188751E1,-2.292084694E-2,4.218387604E-2,5.948734283E-2
1.067784820E1,-2.656999230E-2,6.118440628E-2,4.292964935E-2
1.069383941E1,2.154305577E-2,8.544075489E-2,-4.072189331E-2
1.070983062E1,7.277160883E-3,7.159388065E-2,-7.878589630E-2
1.072585235E1,-1.749500632E-2,5.187201500E-2,-1.097679138E-2
1.074181304E1,-3.814941645E-2,4.518210888E-2,9.231948853E-2
1.075777374E1,-7.239711285E-2,2.404487133E-2,1.192827225E-1
1.077376495E1,-4.026758671E-2,4.620456696E-2,1.199903488E-1
1.078972564E1,1.727467775E-2,8.552479744E-2,5.067348480E-2
1.080568634E1,3.500932455E-2,6.174087524E-2,7.471084595E-3
1.082167754E1,3.835958242E-2,2.375721931E-2,-2.374076843E-2
1.083766876E1,4.682096839E-2,4.070711136E-2,-3.093719482E-2
1.085362945E1,4.134497046E-2,5.620706081E-2,4.312038422E-2
1.086959014E1,8.085401356E-2,4.541325569E-2,4.268264771E-2
1.088564239E1,4.818418622E-2,3.943383694E-2,-1.062202454E-2
1.090163360E1,4.908418655E-2,2.883636951E-2,7.410049438E-4
1.091759429E1,-4.362103343E-2,5.947136879E-2,8.630180359E-2
1.093355499E1,2.029886842E-2,8.593475819E-2,1.188821793E-1
1.094951568E1,2.640336752E-3,1.295344234E-1,1.581039429E-1
1.096541534E1,1.547616720E-2,9.176367521E-2,-2.097702026E-2
1.098143707E1,-3.235393763E-2,7.151991129E-2,-1.818847656E-2
1.099745880E1,-2.515366673E-2,5.958640575E-2,-3.433609009E-2
1.101341949E1,-1.536130905E-3,7.811987400E-2,9.565353394E-3
1.102938018E1,-1.993274689E-2,1.004310250E-1,2.725315094E-2
1.104540191E1,-5.516314507E-2,1.086184978E-1,9.047412872E-2
1.106136260E1,-1.783898473E-2,7.862251997E-2,-8.994102478E-3
1.107732330E1,6.313174963E-3,1.196880937E-1,1.138687134E-2
1.109328399E1,1.690346003E-2,1.267514229E-1,3.185462952E-2
1.110924468E1,9.072393179E-3,1.330570579E-1,1.144104004E-1
1.112517486E1,-1.602125168E-2,1.119613051E-1,6.743144989E-2
1.114122711E1,-3.787189722E-3,6.187158823E-2,2.730178833E-2
1.115721832E1,1.326940954E-2,5.997073650E-2,-1.000795364E-1
1.117324004E1,-2.410982549E-2,5.900287628E-2,-1.440505981E-1
1.118920074E1,-3.565488756E-2,7.294803858E-2,-1.551971436E-1
1.120516143E1,-2.871504426E-2,7.737684250E-2,-8.950614929E-2
1.122112213E1,-2.043262124E-3,1.346464753E-1,2.227859497E-1
1.123708282E1,-6.522566080E-3,1.443408132E-1,1.558494568E-2
1.125304351E1,4.600980878E-2,1.829215884E-1,1.075878143E-1
1.126900421E1,1.248946786E-2,1.027999520E-1,9.413719177E-2
1.128499542E1,-2.181372046E-2,5.690908432E-2,1.548252106E-1
1.130095611E1,-3.425657749E-2,7.061165571E-2,5.013847351E-2
1.131691680E1,-2.347496152E-2,9.692203999E-2,7.700634003E-2
1.133290801E1,1.452010870E-2,8.717519045E-2,5.130386353E-2
1.134886871E1,2.505019307E-2,1.077750027E-1,1.377773285E-2
1.136482940E1,4.289197922E-2,1.544832289E-1,9.144020081E-2
1.138082061E1,-2.552631497E-2,1.557412148E-1,5.915355682E-2
1.139681182E1,-3.196686506E-3,1.444715858E-1,1.177835464E-1
1.141277252E1,-4.150477052E-2,1.055546701E-1,8.766841888E-2
1.142879424E1,-3.623187542E-3,1.035186648E-1,1.200199127E-2
1.144475494E1,-9.610354900E-4,1.043615639E-1,1.529979706E-2
1.146074615E1,-4.872888327E-3,1.605021507E-1,-1.017475128E-2
1.147673736E1,-2.702027559E-3,2.377361655E-1,-1.432580948E-1
1.149266754E1,2.024759352E-2,2.440512180E-1,-9.884452820E-2
1.150865875E1,2.820296586E-2,1.897028387E-1,-1.331167221E-1
1.152461944E1,-5.066454411E-3,1.476321369E-1,3.146839142E-2
1.154061065E1,-2.206057310E-3,1.504796445E-1,1.936330795E-1
1.155663238E1,-5.599819124E-2,1.579909921E-1,1.618022919E-1
1.157262359E1,-5.958251655E-2,1.287799627E-1,1.012735367E-1
1.158861480E1,-6.778420508E-2,1.152400598E-1,6.957912445E-2
1.160451446E1,-2.103838325E-2,1.330131590E-1,1.169605255E-1
1.162053619E1,6.775496900E-2,1.462133825E-1,-1.512241364E-2
1.163652740E1,3.675732017E-2,1.988026500E-1,9.468460083E-2
1.165254913E1,6.402206421E-2,1.378296763E-1,-2.055263519E-2
1.166850982E1,-2.348095179E-3,1.584858000E-1,1.897649765E-1
1.168447051E1,-5.565232038E-2,1.505172253E-1,6.018924713E-2
1.170046172E1,-5.004830658E-2,1.478841901E-1,3.372669220E-2
1.171645294E1,-3.884994984E-2,7.929587364E-2,-1.003179550E-1
1.173238311E1,-3.168046474E-3,1.452650130E-1,-1.073884964E-1
1.174840484E1,-2.520680428E-3,1.875877976E-1,-9.529399872E-2
1.176436553E1,8.648991585E-3,1.962862909E-1,2.990722656E-3
1.178035674E1,1.211541891E-2,2.034987807E-1,6.298828125E-2
1.179637847E1,1.760645211E-2,1.590391397E-1,9.198951721E-2
1.181240020E1,-5.036830902E-3,1.392309219E-1,3.728961945E-2
1.182836090E1,5.282452703E-2,1.645013392E-1,1.525602341E-1
1.184432159E1,-4.458829761E-3,1.683335304E-1,1.168384552E-1
1.186037384E1,-2.067783475E-2,1.911909133E-1,1.073608398E-1
1.187636504E1,-8.845791221E-3,1.612656564E-1,4.768085480E-2
1.189235626E1,4.482226074E-2,1.758385450E-1,1.651687622E-1
1.190834747E1,2.145832777E-2,1.581481993E-1,-1.163768768E-2
1.192433868E1,-4.894375801E-3,1.200239360E-1,1.281738281E-2
1.194029937E1,1.130619645E-2,1.162166595E-1,-1.349802017E-1
1.195626006E1,4.416689277E-3,1.345503926E-1,-1.080141068E-1
1.197225128E1,-8.125722408E-3,1.628834903E-1,-4.759120941E-2
1.198824249E1,-6.182979047E-2,1.803276241E-1,-5.177688599E-2
1.200423370E1,-3.813445568E-2,1.880428493E-1,-2.952957153E-2
1.202022491E1,-5.922421813E-2,1.836233735E-1,8.135700226E-2
1.203615508E1,-5.072420835E-2,1.805569530E-1,7.985115051E-3
1.205214630E1,-1.810362935E-2,1.614881456E-1,1.142549515E-1
1.206813751E1,-8.098796010E-3,2.098440230E-1,3.625202179E-2
1.208418975E1,2.016763389E-2,1.525470614E-1,-3.925704956E-2
1.210018096E1,4.030585289E-2,1.567600369E-1,-9.322261810E-2
1.211614166E1,4.570603371E-3,1.586365700E-1,-3.232192993E-2
1.213210235E1,-1.864407957E-2,1.987434626E-1,-1.216506958E-2
1.214809356E1,3.282949328E-3,2.027494311E-1,-1.506805420E-3
1.216408477E1,-5.829933286E-2,1.594845653E-1,1.599473953E-1
1.218004547E1,2.379366755E-2,1.642144918E-1,5.806255341E-2
1.219600616E1,1.693545282E-2,1.714278460E-1,2.797889709E-2
1.221199737E1,-1.267658174E-2,1.589083672E-1,9.713172913E-3
1.222798858E1,3.262506425E-2,1.570081115E-1,3.207683563E-2
1.224391876E1,1.599353552E-2,1.610113382E-1,6.173610687E-2
1.225997100E1,2.375113964E-2,1.505298018E-1,7.843017578E-3
1.227593170E1,2.849489450E-3,1.368556619E-1,-9.380435944E-2
1.229192291E1,-1.200050116E-2,1.014230251E-1,-2.317237854E-2
1.230788360E1,2.434733510E-2,1.128575802E-1,-6.512737274E-2
1.232384429E1,-2.067951858E-2,1.464885473E-1,1.020908356E-2
1.233986602E1,-7.174015045E-4,2.012651563E-1,1.166877747E-1
1.235588775E1,3.709743917E-2,2.328125834E-1,1.109600067E-1
1.237184844E1,-5.809977651E-3,2.122375369E-1,2.402496338E-2
1.238783966E1,-2.547822893E-2,2.069005370E-1,-3.657150269E-2
1.240380035E1,-1.363749802E-2,2.225930691E-1,3.399276733E-2
1.241979156E1,-3.529351950E-2,1.776680946E-1,-7.508468628E-2
1.243578277E1,4.524721205E-2,1.722955108E-1,4.074192047E-2
1.245174346E1,-2.157543600E-2,1.490316987E-1,7.025241852E-2
1.246773467E1,5.091579258E-2,1.524663568E-1,4.711914062E-2
1.248375640E1,2.114886045E-2,1.584494710E-1,7.187843323E-2
1.249971710E1,-3.591239452E-3,1.292161345E-1,1.757907867E-2
1.251567779E1,-7.056148350E-2,1.185476184E-1,3.252410889E-2
1.253166900E1,-1.004832983E-2,1.091376543E-1,5.211162567E-2
1.254759918E1,-2.074196935E-3,1.334456205E-1,6.994247437E-3
1.256359039E1,8.690699935E-3,8.149075508E-2,-3.335475922E-2
1.257955108E1,-5.307517946E-2,8.568489552E-2,2.796173096E-3
1.259551177E1,-4.361212254E-2,8.852428198E-2,-4.012107849E-2
1.261150299E1,-1.345252991E-2,1.237531900E-1,2.723026276E-2
1.262749420E1,-5.063310266E-3,1.641033292E-1,1.230087280E-1
1.264351592E1,3.761021793E-2,1.784244776E-1,6.789207458E-2
1.265950714E1,3.231722116E-2,1.316272020E-1,2.003002167E-2
1.267549835E1,6.884336472E-4,1.410486102E-1,-3.489589691E-2
1.269142852E1,-1.866154373E-2,1.127208471E-1,-4.650115967E-2
1.270741973E1,1.706618071E-2,1.151697040E-1,-5.536651611E-2
1.272338043E1,1.385937631E-2,1.736879349E-1,-6.718254089E-2
1.273937164E1,-7.407411933E-3,1.978219748E-1,-5.757617950E-2
1.275536285E1,4.993379116E-5,1.825896502E-1,1.048650742E-1
1.277132354E1,-6.504566967E-2,1.831815243E-1,1.929349899E-1
1.278731475E1,-2.532052994E-2,1.305265427E-1,1.781024933E-1
1.280333648E1,-2.122841775E-2,1.273384094E-1,7.237339020E-2
1.281929717E1,3.429296613E-2,1.116645932E-1,-1.679229736E-2
1.283525787E1,2.122259140E-2,8.494573832E-2,1.338481903E-2
1.285121856E1,5.141317844E-3,8.458369970E-2,6.010532379E-2
1.286720977E1,1.115405560E-2,1.114016771E-1,1.043825150E-1
1.288323150E1,5.397632718E-3,9.131032228E-2,7.458686829E-2
1.289919219E1,4.253379256E-2,9.837043285E-2,7.367229462E-2
1.291515289E1,1.871128380E-2,8.534908295E-2,-6.140708923E-3
1.293114410E1,-8.414298296E-3,7.036149502E-2,-5.962371826E-2
1.294713531E1,-3.691017628E-4,6.631612778E-2,-8.449077606E-2
1.296315704E1,-2.609673142E-2,6.996285915E-2,-8.636474609E-3
1.297914825E1,-2.813719213E-2,8.628857136E-2,-2.266883850E-3
1.299510894E1,-5.669882149E-2,7.833015919E-2,1.614093781E-2
1.301106964E1,-4.186411947E-2,9.664875269E-2,5.374908447E-2
1.302706085E1,-3.492277861E-2,9.797459841E-2,7.662963867E-2
1.304308258E1,-2.800561488E-2,1.122171879E-1,2.281093597E-2
1.305904327E1,-3.400716186E-2,9.819185734E-2,4.315948486E-2
1.307500396E1,-3.870762885E-2,9.658622742E-2,1.562976837E-2
1.309096466E1,5.152069032E-3,6.475806236E-2,-3.347873688E-2
1.310695587E1,1.011990011E-2,9.426414967E-2,3.225231171E-2
1.312294708E1,8.626900613E-3,6.917232275E-2,-1.930046082E-2
1.313890777E1,1.492699236E-2,6.652110815E-2,-5.409145355E-2
1.315486846E1,8.268900216E-3,1.480084658E-2,-4.777908325E-4
1.317085967E1,-1.714949310E-2,5.369120836E-2,2.670574188E-2
1.318682037E1,1.565135270E-2,6.079417467E-2,1.114063263E-1
1.320278106E1,2.287182957E-2,3.405332565E-2,2.394866943E-2
1.321883331E1,3.810952604E-2,3.768444061E-2,-9.690761566E-2
1.323482452E1,5.203844979E-2,1.979112625E-2,-8.855152130E-2
1.325081573E1,2.831619233E-2,8.521223068E-2,2.029991150E-2
1.326677642E1,8.983500302E-3,5.744072795E-2,9.328746796E-2
1.328273712E1,6.196118146E-2,4.066902399E-2,7.538414001E-2
1.329869781E1,3.053263575E-2,3.712612391E-2,6.476402283E-2
1.331468902E1,1.885513961E-2,1.154190302E-2,6.380176544E-2
1.333064971E1,2.308740467E-2,1.251962781E-2,-2.080821991E-2
1.334657989E1,-2.180649340E-2,2.043253183E-2,-2.404022217E-2
1.336260162E1,-4.094213247E-3,3.361910582E-3,-3.199481964E-2
1.337856231E1,-4.450366646E-2,4.271572828E-2,4.853439331E-2
1.339452300E1,-2.437005937E-2,6.392434239E-2,-4.565143585E-2
1.341048370E1,-2.061107010E-2,8.844816685E-2,-1.047992706E-2
1.342641387E1,-2.623674273E-2,6.675033271E-2,2.714443207E-2
1.344237457E1,-1.211585850E-2,5.966171622E-3,1.831054688E-4
1.345839630E1,4.496538639E-2,-1.803025603E-2,9.298515320E-2
1.347438751E1,3.202959895E-2,-1.710553467E-2,6.377220154E-2
1.349034820E1,1.319742948E-2,-4.652671516E-3,8.016014099E-2
1.350636993E1,-7.400661707E-3,2.187929302E-2,7.510471344E-2
1.352233062E1,-9.861476719E-3,3.656804562E-2,4.617309570E-2
1.353832183E1,-3.253064305E-2,8.581172675E-3,3.404998779E-2
1.355428253E1,1.541598886E-2,6.771389395E-3,9.986877441E-3
1.357024322E1,-3.200024366E-3,1.642953604E-2,8.411407471E-2
1.358623443E1,-5.754102021E-2,-4.663302563E-3,6.013870239E-2
1.360219512E1,-2.270155400E-2,-1.750055514E-2,1.945304871E-2
1.361818634E1,-5.959227681E-3,3.665079921E-2,5.541706085E-2
1.363417754E1,-2.418903261E-2,5.909336358E-2,7.463169098E-2
1.365016876E1,-2.497583628E-3,6.462041289E-2,2.443313599E-2
1.366615997E1,2.638635039E-2,4.477963969E-2,-3.053951263E-2
1.368212066E1,-6.911154836E-3,2.974778414E-3,-2.801418304E-2
1.369811187E1,-1.613880321E-2,1.829281449E-2,-5.414295197E-2
1.371407256E1,3.183453158E-2,1.558078825E-2,-2.992248535E-2
1.373006378E1,5.502482131E-2,1.424135268E-2,1.831817627E-2
1.374605499E1,7.440943271E-3,1.936167479E-3,4.399299622E-3
1.376207672E1,-2.306975424E-3,-1.632770896E-2,2.169895172E-2
1.377806793E1,3.733114153E-2,2.244859934E-4,5.345726013E-2
1.379399810E1,1.343504712E-2,1.147124171E-2,1.259498596E-1
1.380995880E1,2.131879330E-2,1.540085673E-2,5.716419220E-2
1.382595001E1,-1.535475254E-2,-1.341763139E-2,5.541229248E-2
1.384188018E1,1.428044215E-2,3.158926964E-3,2.737712860E-2
1.385790191E1,-1.019505039E-2,2.074900270E-2,6.884860992E-2
1.387392364E1,-1.321116090E-2,1.953887939E-2,-5.241870880E-2
1.388988433E1,-1.668806002E-2,2.564397454E-2,1.232519150E-1
1.390584503E1,8.526377380E-3,2.322348952E-2,1.432952881E-1
1.392186675E1,-6.975542754E-3,2.948352695E-2,4.352855682E-2
1.393785797E1,3.028264269E-2,6.022045016E-2,-5.389595032E-2
1.395381866E1,2.218965814E-2,3.078907728E-2,6.704330444E-3
1.396977935E1,-1.671860926E-2,1.350620389E-2,-4.517841339E-2
1.398577056E1,-1.850505173E-2,1.305323839E-2,-2.759456635E-2
1.400170074E1,-3.503083438E-2,4.074555635E-2,-5.071163177E-2
1.401775299E1,-2.243655920E-2,3.190284967E-2,-6.425762177E-2
1.403377471E1,4.504293576E-2,4.982811213E-2,-3.705596924E-2
1.404979644E1,1.682564244E-2,5.408221483E-2,-6.246185303E-2
1.406575714E1,-4.155507311E-2,6.163913012E-2,2.713203430E-2
1.408171783E1,-5.246127397E-2,6.668633223E-2,1.240777969E-1
1.409767852E1,-3.156630322E-3,3.966498375E-2,1.989650726E-2
1.411363922E1,5.202989280E-2,2.759271860E-2,2.819557190E-1
1.412959991E1,-5.337490141E-2,5.721634626E-2,4.579448700E-2
1.414556060E1,-6.138894707E-3,-3.373324871E-3,-4.664421082E-2
1.416155181E1,5.426642671E-2,1.024693251E-2,6.921863556E-2
1.417751251E1,-2.486238256E-2,3.645777702E-3,1.519393921E-2
1.419350372E1,-2.340871841E-2,1.357686520E-2,1.431322098E-1
1.420952545E1,1.407181844E-2,3.191286325E-2,9.145069122E-2
1.422548614E1,2.552523278E-2,7.046556473E-2,5.645561218E-2
1.424144683E1,1.372748241E-2,1.955515146E-2,9.440422058E-3
1.425740753E1,6.273198128E-2,1.027041674E-2,-1.834011078E-2
1.427336822E1,-1.005176827E-2,2.200990915E-2,1.388931274E-2
1.428932891E1,-3.069775924E-2,-9.647607803E-3,-3.988552094E-2
1.430528961E1,-6.515141577E-2,3.279691935E-2,1.124505997E-1
1.432118926E1,-8.925274014E-4,4.900634289E-2,9.484481812E-2
1.433721099E1,-3.097132221E-2,7.966834307E-2,1.728420258E-1
1.435320220E1,7.110418379E-2,7.903867960E-2,3.037071228E-2
1.436916290E1,-2.867971174E-2,5.800640583E-2,-3.557491302E-2
1.438512359E1,8.257874288E-3,4.448127747E-2,-4.640293121E-2
1.440117584E1,-3.832525760E-2,4.782569408E-2,-3.086471558E-2
1.441716705E1,-1.707471535E-2,3.673833609E-2,3.474235535E-2
1.443312774E1,4.381303117E-2,-2.721911669E-2,3.353023529E-2
1.444908843E1,-3.021466546E-3,4.825353622E-3,1.559925079E-2
1.446507965E1,-8.220414631E-3,4.967081547E-2,1.172437668E-1
1.448100982E1,-6.944914814E-3,5.541414022E-2,1.826782227E-1
1.449706207E1,-1.027934719E-2,5.481696129E-2,1.160507202E-1
1.451305328E1,-3.079929948E-2,5.015885830E-2,2.531909943E-2
1.452904449E1,-2.137171850E-2,5.812722445E-2,-1.985836029E-2
1.454500518E1,-2.175216004E-2,1.222473383E-2,-2.373981476E-2
1.456096588E1,-2.988696098E-3,3.315079212E-2,2.695178986E-2
1.457695709E1,-2.498762682E-2,3.953313828E-2,1.068401337E-1
1.459294830E1,2.596971393E-2,8.556330204E-2,5.494976044E-2
1.460890899E1,1.528079994E-2,8.512401581E-2,8.915519714E-2
1.462486968E1,4.819673672E-2,1.930952072E-2,-2.036285400E-2
1.464089141E1,3.018545173E-2,2.932429314E-3,6.421375275E-2
1.465688262E1,-3.823337704E-2,3.618121147E-3,7.700157166E-2
1.467284332E1,-1.898781024E-2,1.029133797E-3,5.379295349E-2
1.468880401E1,6.673963368E-2,4.459440708E-2,1.333570480E-1
1.470473419E1,-4.063130356E-3,9.544628859E-2,-4.085159302E-2
1.472078643E1,1.365036704E-2,7.365846634E-2,-8.081054688E-2
1.473677764E1,-1.407529600E-2,5.582189560E-2,6.350040436E-2
1.475273834E1,-1.802891493E-4,3.913235664E-2,-1.977157593E-2
1.476866851E1,-9.092740715E-3,6.097185612E-2,7.389259338E-2
1.478465972E1,-2.429292351E-2,3.378331661E-2,2.138233185E-2
1.480058990E1,-1.234567817E-2,5.525314808E-2,-7.098197937E-3
1.481661163E1,-1.869200496E-3,8.585989475E-2,-1.860332489E-2
1.483263336E1,-6.486635655E-2,9.479427338E-2,8.506393433E-2
1.484859405E1,-2.805366367E-2,5.828571320E-2,1.121253967E-1
1.486455474E1,-2.441299148E-5,4.893779755E-2,1.414127350E-1
1.488057647E1,8.851314895E-3,4.048025608E-2,7.716178894E-2
1.489653717E1,1.965762675E-2,3.890693188E-2,8.709716797E-2
1.491249786E1,6.285455544E-3,6.615066528E-2,6.352710724E-2
1.492845855E1,3.351767547E-3,1.173535585E-1,4.235267639E-2
1.494444976E1,4.613092635E-3,9.552133083E-2,4.551887512E-3
1.496044097E1,-4.889712855E-2,8.289968967E-2,6.275177002E-2
1.497640167E1,-1.134026330E-2,6.729793549E-2,8.764457703E-2
1.499236236E1,-2.138332650E-2,6.965601444E-2,1.243801117E-1
1.500835357E1,3.618728742E-2,6.511080265E-2,9.383678436E-2
1.502431426E1,8.008999750E-3,8.523225784E-3,2.478408813E-2
1.504027496E1,4.595205188E-2,8.289837837E-2,-3.477096558E-2
1.505629669E1,2.344974317E-3,1.110101938E-1,-5.610942841E-2
1.507231842E1,-6.990754046E-3,7.579326630E-2,-4.377746582E-2
1.508834014E1,-6.098634750E-2,8.039510250E-2,3.576850891E-2
1.510433135E1,8.573621511E-3,6.624758244E-2,7.705879211E-2
1.512026153E1,-5.611124635E-2,8.577620983E-2,5.344390869E-2
1.513628326E1,-2.520415559E-2,8.430027962E-2,5.383396149E-2
1.515230499E1,-3.395130485E-2,4.350233078E-2,1.429767609E-1
1.516829620E1,5.521348864E-2,6.239438057E-2,2.859306335E-2
1.518425689E1,1.424074359E-2,6.176042557E-2,4.345607758E-2
1.520021758E1,1.714411750E-2,6.855750084E-2,8.229351044E-2
1.521620880E1,-2.074142173E-2,3.349816799E-2,8.747482300E-2
1.523223052E1,-1.081413962E-2,4.468476772E-2,5.893993378E-2
1.524819122E1,-2.445312589E-2,2.768278122E-2,-4.882621765E-2
1.526418243E1,2.317124233E-2,3.907251358E-2,-3.453063965E-2
1.528014312E1,-4.775287956E-2,9.777987003E-2,-1.301488876E-1
1.529616485E1,-3.198412433E-2,1.110045910E-1,1.873207092E-2
1.531218658E1,-3.783085197E-2,9.652471542E-2,1.126708984E-1
1.532814727E1,-3.657152504E-2,7.298815250E-2,1.492156982E-1
1.534410797E1,2.459214255E-2,6.579589844E-2,1.641664505E-1
1.536012969E1,-2.354311757E-2,4.819262028E-2,1.431055069E-1
1.537609039E1,2.570494264E-2,4.675984383E-3,9.097194672E-2
1.539205108E1,-2.092599310E-2,6.746208668E-2,6.319808960E-2
1.540801177E1,-3.928092867E-2,6.996417046E-2,7.069396973E-2
1.542397247E1,5.470421165E-3,5.480837822E-2,6.640720367E-2
1.543990264E1,-1.656093076E-2,5.842053890E-2,5.937862396E-2
1.545592437E1,8.761426434E-3,3.846800327E-2,-7.457733154E-3
1.547191558E1,-6.190781482E-3,6.127119064E-2,1.903724670E-2
1.548790679E1,1.978022046E-3,8.019101620E-2,2.170467377E-2
1.550389800E1,-2.454230189E-2,7.076501846E-2,7.230377197E-2
1.551985870E1,-1.797703467E-2,5.983793736E-2,3.306388855E-3
1.553581939E1,-3.320550174E-2,6.306445599E-2,8.303260803E-2
1.555178008E1,4.593720660E-3,5.111622810E-2,2.410221100E-2
1.556774078E1,7.287853956E-2,7.273352146E-2,1.899261475E-1
1.558373199E1,2.975530736E-2,8.619093895E-2,3.210544586E-2
1.559975372E1,2.235594392E-2,4.273951054E-2,-6.579494476E-2
1.561568389E1,7.389087230E-3,4.583108425E-2,8.543968201E-2
1.563164459E1,-4.649766535E-2,3.744363785E-2,7.392883301E-2
1.564763580E1,-7.190085202E-2,5.160713196E-2,1.104345322E-1
1.566359649E1,1.654210873E-2,6.724107265E-2,1.947154999E-1
1.567955718E1,1.488605514E-2,1.161957979E-1,5.600070953E-2
1.569551788E1,6.275480986E-2,1.428227425E-1,2.731609344E-2
1.571150909E1,1.501551643E-2,8.670294285E-2,-7.545185089E-2
1.572746978E1,-1.038835198E-2,6.793189049E-2,-5.652427673E-3
1.574343048E1,-1.594930142E-2,7.657861710E-2,2.566719055E-2
1.575933013E1,-5.390834436E-2,6.852889061E-2,4.501914978E-2
1.577535186E1,-8.721165359E-4,6.365430355E-2,4.053211212E-2
1.579137359E1,-6.386550143E-3,7.086408138E-2,7.197761536E-2
1.580733428E1,-6.922366098E-3,9.249353409E-2,6.751728058E-2
1.582329498E1,-1.599224471E-2,6.351971626E-2,7.020282745E-2
1.583928619E1,1.700930297E-2,2.505898476E-2,-1.568031311E-2
1.585524688E1,4.384908825E-3,4.898607731E-2,-2.492904663E-2
1.587120758E1,-3.545887768E-2,3.296971321E-2,-2.967834473E-3
1.588716827E1,-1.068827510E-2,8.495426178E-2,-3.147125244E-5
1.590312896E1,3.164593130E-3,4.717659950E-2,5.094909668E-2
1.591902862E1,-1.295798272E-2,2.857398987E-2,1.498260498E-1
1.593505035E1,3.410134092E-2,2.819943428E-2,6.182765961E-2
1.595107208E1,1.537245885E-2,3.949475288E-2,3.843212128E-2
1.596703277E1,-3.711268306E-3,6.716644764E-2,3.926277161E-2
1.598302398E1,-6.324052811E-5,5.485010147E-2,9.766101837E-2
1.599898467E1,-8.520686999E-3,7.348847389E-2,1.512517929E-1
1.601494537E1,-5.010721833E-2,6.686878204E-2,1.112813950E-1
1.603090606E1,3.269849345E-2,7.642257214E-2,7.841682434E-2
1.604686675E1,-2.087713778E-2,8.394896984E-2,3.809738159E-2
1.606282745E1,-2.898178436E-2,4.464662075E-2,5.060863495E-2
1.607881866E1,1.941797137E-2,5.608880520E-2,6.797885895E-2
1.609477935E1,-1.263872162E-2,1.067755222E-1,1.348495483E-3
1.611077056E1,-6.655572355E-2,1.625967026E-1,2.540206909E-2
1.612679229E1,-9.818758070E-2,1.001441479E-1,-1.278753281E-1
1.614275298E1,2.095748484E-2,8.228874207E-2,3.509521484E-2
1.615871368E1,-5.702476203E-2,1.382541656E-2,4.034137726E-2
1.617467437E1,-1.114638522E-2,5.352282524E-2,1.821308136E-1
1.619063507E1,-3.520914167E-2,5.473518372E-2,1.152648926E-1
1.620659576E1,3.787666559E-3,1.132179499E-1,8.155059814E-2
1.622255645E1,3.796639293E-2,1.246128082E-1,3.803443909E-2
1.623848663E1,9.963240474E-3,8.672547340E-2,-1.012992859E-2
1.625450836E1,2.588504180E-2,5.824005604E-2,-1.728343964E-2
1.627053008E1,-6.005617976E-2,3.012955189E-2,6.933021545E-2
1.628649078E1,3.780849278E-3,3.910040855E-2,1.656913757E-1
1.630245147E1,4.656818882E-2,7.736670971E-2,1.085634232E-1
1.631847320E1,2.980877832E-2,8.933782578E-2,8.239746094E-4
1.633446441E1,4.183861986E-2,3.027045727E-2,5.723953247E-3
1.635042510E1,4.477027804E-3,3.565251827E-2,1.333427429E-2
1.636638580E1,1.224812493E-2,4.028582573E-2,1.361026764E-1
1.638234649E1,-2.107995935E-2,6.077039242E-2,1.581897736E-1
1.639827667E1,-7.483880967E-3,6.920719147E-2,-6.827354431E-3
1.641429840E1,-1.989296079E-2,4.939591885E-2,-4.967403412E-2
1.643028961E1,-4.424196854E-2,9.192323685E-2,-1.794338226E-2
1.644625030E1,3.565512598E-3,6.081104279E-2,7.408046722E-2
1.646221099E1,-6.706672907E-2,5.844044685E-2,6.315708160E-2
1.647820220E1,8.443370461E-5,1.053248644E-1,9.039020538E-2
1.649419342E1,2.055646107E-2,8.440709114E-2,1.004123688E-1
1.651015411E1,2.695439011E-2,1.245707273E-1,9.795570374E-2
1.652611480E1,-3.382410854E-3,1.335004568E-1,-1.059989929E-1
1.654207550E1,2.834744751E-2,1.091339588E-1,-1.544284821E-2
1.655806671E1,-2.148520574E-2,9.157550335E-2,8.259105682E-2
1.657402740E1,2.698422968E-2,1.102952957E-1,8.730506897E-2
1.659001861E1,3.725742176E-2,1.246174574E-1,1.491899490E-1
1.660604034E1,3.366776928E-2,9.214901924E-2,1.698474884E-1
1.662200103E1,-3.321997076E-2,4.394292831E-3,-7.902145386E-3
1.663796172E1,-2.649666741E-3,5.035424232E-2,1.474466324E-1
1.665392242E1,-5.360910296E-2,4.678034782E-2,1.065778732E-1
1.666988311E1,5.078900605E-3,9.921610355E-2,1.469058990E-1
1.668584380E1,1.349868998E-2,8.737885952E-2,5.765914917E-2
1.670183502E1,2.022792771E-2,1.296311617E-1,-2.693748474E-2
1.671788726E1,-4.624689743E-2,9.155952930E-2,-6.349849701E-2
1.673384796E1,-4.894779995E-2,9.748947620E-2,7.724475861E-2
1.674977813E1,-6.309898198E-2,7.824182510E-2,4.782485962E-2
1.676573882E1,-3.533779457E-2,9.674036503E-2,1.593112946E-2
1.678169952E1,-1.043194346E-2,8.369851112E-2,1.036939621E-1
1.679766021E1,1.336913556E-4,8.493769169E-2,9.774303436E-2
1.681362090E1,-7.350817323E-4,5.302274227E-2,-6.644248962E-3
1.682958160E1,-4.138577729E-2,4.453706741E-2,-5.123615265E-2
1.684554229E1,4.902139306E-3,3.753209114E-2,-2.139854431E-2
1.686153350E1,1.091464981E-2,8.734607697E-2,-8.072853088E-3
1.687752471E1,2.976626530E-2,1.121517420E-1,1.012125015E-1
1.689348541E1,2.209037170E-2,1.202763319E-1,1.623153687E-1
1.690947662E1,-1.223874651E-2,9.853541851E-2,3.860092163E-2
1.692549835E1,2.412012033E-2,1.109826565E-1,4.156875610E-2
1.694145904E1,-3.588952497E-2,1.061433554E-1,3.011798859E-2
1.695741973E1,1.391343959E-2,1.392545700E-1,2.582931519E-2
1.697338043E1,1.373541541E-2,1.443811655E-1,-2.144050598E-2
1.698934112E1,7.954603061E-3,1.093224287E-1,-1.595020294E-2
1.700530181E1,1.131159533E-2,9.010899067E-2,9.508705139E-2
1.702129302E1,-2.245045453E-2,6.546139717E-2,1.366271973E-1
1.703728424E1,-6.039462239E-2,7.930970192E-2,3.665637970E-2
1.705324493E1,-3.947166260E-4,9.729564190E-2,-2.745056152E-2
1.706920562E1,-1.273353584E-2,1.154081821E-1,-6.039237976E-2
1.708519683E1,-3.496138752E-2,1.227010489E-1,5.526828766E-2
1.710115753E1,-2.183804847E-2,1.214276552E-1,1.181201935E-1
1.711711822E1,-2.466168068E-2,1.390382051E-1,2.190036774E-1
1.713307891E1,-1.938412711E-2,1.369213462E-1,9.214973450E-2
1.714903961E1,-4.431802034E-2,1.119213700E-1,6.096553802E-2
1.716500030E1,-6.259664148E-2,8.116251230E-2,-1.071834564E-2
1.718096099E1,2.256779745E-2,7.418054342E-2,-4.861068726E-2
1.719695220E1,4.737468809E-2,1.133253574E-1,-5.024433136E-2
1.721291290E1,7.630330510E-3,1.328613758E-1,-1.335144043E-2
1.722887359E1,4.914924502E-4,1.548852921E-1,3.794002533E-2
1.724486480E1,-3.409477323E-2,1.251322031E-1,8.431720734E-2
1.726082550E1,2.234112844E-2,1.009082794E-1,1.257781982E-1
1.727678619E1,7.360102609E-3,1.071411967E-1,5.229187012E-2
1.729280792E1,4.244275391E-2,1.091497540E-1,6.987285614E-2
1.730882964E1,4.566282034E-3,1.375429630E-1,5.636501312E-2
1.732485137E1,-1.739660278E-2,1.152598858E-1,9.311962128E-2
1.734081207E1,-4.313618317E-2,1.090620756E-1,6.519889832E-2
1.735677276E1,-4.886354879E-2,1.030167341E-1,4.211807251E-2
1.737279449E1,-8.162006736E-3,1.150703430E-1,2.424240112E-3
1.738881622E1,1.797410101E-2,1.342094541E-1,6.041526794E-3
1.740480743E1,1.914629713E-2,1.779724360E-1,4.583644867E-2
1.742079864E1,1.196176931E-2,1.402430534E-1,2.816963196E-2
1.743675933E1,2.758223005E-2,1.403563023E-1,5.836009979E-2
1.745272003E1,-3.307782859E-2,9.627783298E-2,1.674909592E-1
1.746868072E1,-3.966968134E-2,1.048388481E-1,5.140781403E-2
1.748464141E1,-4.182033986E-2,9.615403414E-2,6.459999084E-2
1.750060211E1,-7.409082353E-2,9.369230270E-2,3.225231171E-2
1.751650176E1,-3.439635411E-2,1.199378371E-1,-3.596973419E-2
1.753255401E1,-3.378291428E-2,1.332504153E-1,-2.266597748E-2
1.754857574E1,-5.294976383E-2,1.681692600E-1,1.460647583E-2
1.756450592E1,-1.923510060E-2,1.560323834E-1,8.547687531E-2
1.758043609E1,-1.622863486E-2,1.514141858E-1,7.020092010E-2
1.759639678E1,7.415108383E-3,1.658754349E-1,1.074600220E-1
1.761241851E1,-3.516481444E-2,1.609466076E-1,1.770019531E-2
1.762844024E1,-1.573001593E-2,1.388829947E-1,-4.995346069E-3
1.764440093E1,1.199159771E-2,1.182033420E-1,1.552963257E-2
1.766039214E1,1.310218126E-3,1.453228295E-1,1.932621002E-2
1.767635284E1,-3.338014334E-2,1.464706063E-1,-6.299972534E-2
1.769231353E1,-1.794061065E-2,1.388659477E-1,3.910636902E-2
1.770830474E1,-1.757131517E-2,1.194770336E-1,9.815216064E-2
1.772432647E1,2.092462406E-2,1.215047240E-1,7.342720032E-2
1.774028716E1,-1.031927764E-3,1.018276513E-1,5.588436127E-2
1.775624786E1,-3.097836673E-2,1.345567405E-1,1.077671051E-1
1.777220855E1,1.525253057E-3,1.126390398E-1,9.256458282E-2
1.778816925E1,-5.897101015E-2,1.409841180E-1,1.036424637E-1
1.780412994E1,2.303123474E-4,8.988738060E-2,-2.887916565E-2
1.782009063E1,-1.529343426E-3,7.341691852E-2,-2.724361420E-2
1.783608184E1,-5.262605846E-3,1.413093805E-1,-1.189327240E-1
1.785204254E1,-5.768743902E-2,2.062277794E-1,2.881717682E-2
1.786803375E1,-3.460889310E-2,1.852727234E-1,2.344226837E-2
1.788405548E1,-4.912602901E-2,1.869854033E-1,4.452800751E-2
1.789998565E1,3.248497099E-2,1.731573939E-1,8.248043060E-2
1.791597686E1,-3.864157945E-2,1.770874709E-1,6.781196594E-2
1.793193756E1,2.316315472E-2,1.654544324E-1,7.707977295E-2
1.794789825E1,-4.443030804E-2,1.516611874E-1,1.293916702E-1
1.796385894E1,-6.057066470E-2,1.011522189E-1,1.481571198E-1
1.797981964E1,-6.097032130E-2,1.192372292E-1,5.682277679E-2
1.799578033E1,4.115230590E-2,1.155815795E-1,-1.767444611E-2
1.801177154E1,1.719210297E-2,9.981375933E-2,2.757835388E-2
1.802776275E1,3.263337165E-2,1.421637535E-1,4.415130615E-2
1.804378448E1,-4.082940519E-2,1.742090583E-1,2.962207794E-2
1.805974517E1,-4.915016145E-2,1.631048024E-1,2.470970154E-2
1.807570587E1,-6.953011453E-2,1.494140923E-1,-8.901596069E-3
1.809166656E1,6.544902921E-3,1.343450844E-1,1.736927032E-2
1.810762725E1,4.201503843E-2,1.406285912E-1,-2.100181580E-2
1.812358795E1,3.392915428E-2,1.565030962E-1,-4.259872437E-2
1.813954864E1,-1.161299646E-3,1.631524712E-1,5.554962158E-2
1.815544830E1,9.716339409E-3,1.814739257E-1,-1.861667633E-2
1.817147003E1,-6.270684302E-2,1.562224478E-1,3.037452698E-3
1.818749175E1,4.333488643E-2,1.486531943E-1,1.348552704E-1
1.820345245E1,2.656942606E-2,1.648510396E-1,1.110372543E-1
1.821941314E1,-1.920372993E-2,1.273440421E-1,7.045173645E-2
1.823540435E1,-3.278698772E-2,1.245941445E-1,8.967399597E-2
1.825136504E1,-3.914366663E-2,1.089060605E-1,2.513408661E-2
1.826729522E1,1.191012561E-3,1.525556147E-1,-1.052856445E-3
1.828331695E1,6.088266149E-2,1.469195634E-1,-1.157808304E-1
1.829930816E1,-4.533849657E-3,1.898628473E-1,-7.485294342E-2
1.831520782E1,1.481724530E-2,1.520773321E-1,-6.742286682E-2
1.833126007E1,-3.212158382E-2,1.220326126E-1,4.776859283E-2
1.834725128E1,-7.645312697E-2,1.316823214E-1,6.726074219E-2
1.836327300E1,-1.858963072E-2,1.501828730E-1,7.244968414E-2
1.837923370E1,-1.444113255E-2,1.658353806E-1,2.495765686E-2
1.839519439E1,8.688122034E-4,1.650216132E-1,-2.974605560E-2
1.841115508E1,-1.594494283E-2,1.509481072E-1,8.908271790E-3
1.842711578E1,-4.631787539E-3,1.576787829E-1,7.865428925E-2
1.844307647E1,7.610082626E-3,1.690572500E-1,1.101255417E-1
1.845903716E1,-1.938493550E-2,1.516154408E-1,6.509304047E-2
1.847496734E1,1.179820299E-2,1.503071785E-1,3.215885162E-2
1.849095855E1,2.488095313E-2,1.611043215E-1,5.908775330E-2
1.850698028E1,3.859298676E-2,1.658748090E-1,-7.673645020E-2
1.852294097E1,9.572491050E-3,1.443964243E-1,-2.341365814E-2
1.853890167E1,-3.526531160E-2,1.446536779E-1,-1.071453094E-2
1.855489288E1,-1.362636685E-2,1.698667705E-1,3.077125549E-2
1.857088409E1,-6.410770118E-2,1.481295228E-1,4.594898224E-2
1.858684478E1,-3.025598824E-2,1.543658674E-1,7.781696320E-2
1.860280548E1,-1.571848989E-3,1.783914566E-1,-2.577781677E-3
1.861876617E1,-1.732721925E-2,1.713850200E-1,1.174373627E-1
1.863469634E1,8.190914989E-3,1.355066597E-1,1.084938049E-1
1.865071807E1,-1.114946604E-2,1.481056511E-1,5.178833008E-2
1.866667877E1,-1.576721668E-2,1.629722714E-1,-3.596687317E-2
1.868266998E1,-6.500840187E-3,1.556296349E-1,-3.995895386E-2
1.869863067E1,1.619909704E-2,1.633275151E-1,2.053260803E-2
1.871459136E1,-3.275747597E-2,1.634067297E-1,6.652736664E-2
1.873055206E1,-1.996560395E-2,1.282087564E-1,1.148824692E-1
1.874651275E1,-3.420019150E-2,9.074765444E-2,5.208969116E-3
1.876247344E1,5.388766527E-3,7.999175787E-2,3.197479248E-2
1.877846466E1,-2.736374736E-3,9.871506691E-2,-3.941917419E-2
1.879439483E1,1.506263018E-2,1.402956843E-1,-5.369186401E-3
1.881041656E1,2.821683884E-4,1.434109211E-1,-4.565238953E-2
1.882643829E1,5.978055298E-2,1.429224014E-1,4.339504242E-2
1.884239898E1,-7.649496198E-3,1.900808811E-1,-6.850242615E-2
1.885835967E1,-8.137634397E-2,1.981443763E-1,-7.004070282E-2
1.887438140E1,-1.596882939E-3,2.105051875E-1,9.916305542E-3
1.889031158E1,4.174381495E-3,1.703068018E-1,-5.611801147E-2
1.890627227E1,-1.327592134E-2,1.438804865E-1,-2.886390686E-2
1.892226348E1,4.066303372E-3,1.103289723E-1,1.346893311E-1
1.893822418E1,-5.519874394E-2,1.242257953E-1,1.138896942E-1
1.895418487E1,-5.908389390E-2,1.395852566E-1,4.528713226E-2
1.897017608E1,-3.161382675E-2,1.507015824E-1,4.609680176E-2
1.898616729E1,-8.323238790E-2,1.490741372E-1,6.338500977E-2
1.900212798E1,-2.083085477E-2,1.444274187E-1,8.288002014E-2
1.901811920E1,-2.699771523E-2,1.398057342E-1,4.727935791E-2
1.903414092E1,3.954583406E-2,1.392881274E-1,1.888847351E-2
1.905007110E1,5.752743036E-2,1.407443285E-1,1.206684113E-2
1.906603179E1,1.187689602E-2,8.074843884E-2,-4.728317261E-2
1.908202300E1,-5.510967970E-2,1.317624450E-1,-2.745723724E-2
1.909801422E1,-6.891220808E-3,1.230962873E-1,8.985519409E-3
1.911394439E1,2.540409565E-3,1.417035460E-1,5.253505707E-2
1.912996612E1,3.239203990E-2,1.336523890E-1,9.899139404E-3
1.914598785E1,3.500878811E-4,1.366151571E-1,-6.381797791E-2
1.916194854E1,2.693374455E-2,1.365927458E-1,-1.061344147E-2
1.917790924E1,-3.861576319E-3,1.153853536E-1,1.623249054E-2
1.919393096E1,8.804604411E-3,1.017342806E-1,-7.217407227E-3
1.920989166E1,-1.569820940E-2,1.093677282E-1,2.464008331E-2
1.922585235E1,-3.596144915E-2,1.314783096E-1,1.343441010E-2
1.924181304E1,-4.582490027E-2,1.209040284E-1,4.527759552E-2
1.925777374E1,-5.826488137E-2,1.470738053E-1,8.184337616E-2
1.927367340E1,9.629622102E-3,1.325640082E-1,-1.782894135E-2
1.928969512E1,2.557802200E-2,1.329674721E-1,9.325027466E-3
1.930571685E1,2.470430732E-2,1.295006275E-1,-6.733894348E-3
1.932167754E1,1.514239609E-2,1.477908492E-1,-4.198455811E-2
1.933763824E1,5.288690329E-3,1.052905917E-1,-4.598331451E-2
1.935365997E1,-5.707979202E-3,8.272790909E-2,-1.863765717E-2
1.936962066E1,-2.882933617E-2,9.953552485E-2,-1.505565643E-2
1.938558135E1,-3.347590566E-2,1.034871936E-1,3.414916992E-2
1.940154205E1,-5.869075656E-3,1.491151452E-1,-2.917003632E-2
1.941753326E1,-3.903448582E-2,1.567655206E-1,-3.049087524E-2
1.943355499E1,-5.846866965E-2,1.182018518E-1,6.346321106E-2
1.944951568E1,-4.995754361E-2,1.315887570E-1,1.140394211E-1
1.946547637E1,-4.286855459E-3,1.165941954E-1,3.316020966E-2
1.948143707E1,-1.664499938E-2,1.193747520E-1,4.583263397E-2
1.949739776E1,1.897527277E-2,1.464434266E-1,-6.110191345E-3
1.951335845E1,1.521255076E-2,1.653569341E-1,5.910587311E-2
1.952931915E1,5.551308393E-3,1.084877849E-1,6.669902802E-2
1.954527984E1,-1.829743385E-3,1.345466375E-1,9.347534180E-2
1.956124053E1,-3.249648213E-2,9.873455763E-2,-5.191135406E-2
1.957723175E1,-1.231239736E-2,1.171252728E-1,-8.050918579E-3
1.959325347E1,1.908391714E-3,5.950546265E-2,-6.237792969E-2
1.960921417E1,-8.692279458E-3,8.790230751E-2,-4.027843475E-2
1.962517486E1,-4.106596112E-3,8.023303747E-2,-6.415367126E-3
1.964113555E1,-6.191755831E-2,1.329134107E-1,1.231079102E-1
1.965709625E1,-1.674686372E-2,1.427222490E-1,8.526229858E-2
1.967305694E1,-2.017104626E-2,1.302846670E-1,3.096199036E-2
1.968904815E1,5.415558815E-3,1.585516930E-1,-4.941082001E-2
1.970500884E1,-6.194770336E-3,1.366997957E-1,-5.075740814E-2
1.972096954E1,-7.530376315E-2,8.402109146E-2,3.480911255E-4
1.973696075E1,7.652074099E-3,1.173670292E-1,-1.067695618E-1
1.975295196E1,-2.660363913E-3,9.499883652E-2,2.284431458E-2
1.976891265E1,6.044238806E-3,1.031183004E-1,8.309364319E-2
1.978490386E1,-5.795398355E-2,1.346760988E-1,2.637863159E-2
1.980089508E1,5.722433329E-3,1.287997961E-1,5.822181702E-3
1.981685577E1,-2.755071223E-2,1.211128235E-1,-2.433681488E-2
1.983281646E1,-5.206048489E-3,1.172460318E-1,2.431774139E-2
1.984877716E1,-2.084840834E-2,1.690661907E-1,-3.973102570E-2
1.986473785E1,-1.674741507E-4,1.872459650E-1,3.744792938E-2
1.988069854E1,-1.202061772E-2,1.801518202E-1,2.276420593E-3
1.989668975E1,4.048821330E-2,2.024210691E-1,1.285266876E-2
1.991261993E1,4.304628074E-2,1.636681557E-1,-2.909469604E-2
1.992864166E1,2.626281977E-2,4.861307144E-2,-8.777427673E-2
1.994463287E1,2.285565436E-2,4.819560051E-2,-2.460861206E-2
1.996062408E1,-5.951449275E-2,1.005122662E-1,1.912212372E-2
1.997658477E1,-1.761959493E-2,9.915041924E-2,4.592895508E-2
1.999254547E1,-5.739027262E-2,1.259196997E-1,1.442861557E-1
2.000853668E1,9.802103043E-3,9.847390652E-2,2.732753754E-2
2.002452789E1,3.041858971E-2,1.170548201E-1,4.224681854E-2
2.004048858E1,5.893748999E-2,1.007326841E-1,2.862071991E-2
2.005641876E1,-3.317761421E-2,5.436933041E-2,-6.298065186E-3
2.007244048E1,-3.090620041E-2,1.250901222E-1,-3.636837006E-2
2.008843170E1,-9.427234530E-3,1.146204472E-1,2.974510193E-3
2.010439239E1,-8.258149028E-2,1.275682449E-1,6.445884705E-3
2.012035308E1,6.458996236E-2,1.415402889E-1,7.701873779E-3
2.013628326E1,-4.301556945E-2,1.221863031E-1,-3.854560852E-2
2.015224395E1,1.354195178E-2,1.295827627E-1,-8.239746094E-3
2.016826568E1,-1.542004943E-2,1.047407389E-1,-6.904315948E-2
2.018425689E1,1.296368241E-2,1.040499210E-1,1.448631287E-3
2.020018707E1,7.747799158E-3,1.408594847E-1,-2.850914001E-2
2.021620880E1,-4.661798477E-3,1.513876915E-1,3.699398041E-2
2.023216949E1,-7.200568914E-3,1.361756325E-1,2.102756500E-2
2.024813018E1,4.871636629E-3,1.434724331E-1,7.462501526E-2
2.026409088E1,-7.559835911E-3,1.465209723E-1,3.644943237E-3
2.028005157E1,1.257172227E-2,1.132063866E-1,3.773117065E-2
2.029604278E1,-3.753006458E-3,1.027071476E-1,4.599571228E-3
2.031197296E1,4.509627819E-3,9.553289413E-2,2.674770355E-2
2.032796417E1,-2.143564820E-2,8.490312099E-2,-4.428863525E-2
2.034395538E1,3.578335047E-2,1.014437675E-1,-4.362487793E-2
2.035997711E1,4.426926374E-3,1.069107056E-1,7.136344910E-3
2.037596832E1,6.153613329E-3,1.149075031E-1,1.717090607E-2
2.039189849E1,-1.628753543E-2,9.759855270E-2,-5.634975433E-2
2.040795074E1,-2.628639340E-2,1.162476540E-1,4.970264435E-2
2.042397247E1,-5.312138796E-2,7.908070087E-2,-4.073047638E-2
2.043996368E1,-2.369290590E-2,9.234452248E-2,3.605175018E-2
2.045592437E1,-2.516132593E-2,7.353925705E-2,1.714038849E-2
2.047188507E1,-4.238891602E-2,7.680594921E-2,-4.218959808E-2
2.048784576E1,-1.858472824E-4,1.232364178E-1,-9.668827057E-2
2.050380645E1,-3.939417005E-2,7.418739796E-2,-6.024646759E-2
2.051979766E1,4.262745380E-3,7.514774799E-2,9.461402893E-3
2.053572784E1,-3.908678889E-2,8.330345154E-2,5.766296387E-2
2.055171905E1,-6.671488285E-3,1.021459103E-1,7.010746002E-2
2.056767974E1,2.225965261E-2,1.136248112E-1,4.207611084E-3
2.058360992E1,-4.311442375E-3,1.228344440E-1,4.768180847E-2
2.059963165E1,6.360501051E-3,9.789013863E-2,-3.088569641E-2
2.061556182E1,2.469509840E-3,1.096096039E-1,3.887557983E-2
2.063152252E1,-3.794282675E-3,9.303295612E-2,2.724075317E-2
2.064751373E1,4.571735859E-3,1.018699408E-1,8.560180664E-3
2.066350494E1,1.213824749E-2,1.046999693E-1,4.749202728E-2
2.067943511E1,2.095440030E-2,9.302091599E-2,-3.808307648E-2
2.069536529E1,5.722641945E-4,8.351850510E-2,-3.744602203E-2
2.071138702E1,-5.230197310E-2,6.667685509E-2,-3.237724304E-3
2.072734771E1,-1.612108946E-2,6.234097481E-2,2.139663696E-2
2.074327789E1,-2.464380860E-2,9.008228779E-2,-1.963615417E-3
2.075926910E1,-2.787199616E-2,1.185215712E-1,1.283073425E-2
2.077522979E1,-8.162647486E-3,1.092368364E-1,-1.558113098E-2
2.079115997E1,-4.899883270E-2,1.022856236E-1,-1.287937164E-2
2.080718170E1,-1.887813210E-2,8.697307110E-2,6.383895874E-3
2.082320342E1,2.141353488E-2,1.063668728E-1,-4.359436035E-2
2.083922515E1,-1.090380549E-2,1.383984089E-1,-7.137966156E-2
2.085518585E1,-4.350158572E-2,1.523517370E-1,-7.046127319E-2
2.087114654E1,-3.017854691E-2,1.913825274E-1,-3.370666504E-2
2.088713775E1,-7.080209255E-2,1.359709501E-1,1.321115494E-1
2.090312896E1,7.459111512E-2,7.739353180E-2,1.159944534E-1
2.091905914E1,-3.973355889E-2,8.302271366E-2,7.553863525E-2
2.093505035E1,-7.032811642E-3,4.358649254E-2,-2.177524567E-2
2.095107208E1,-4.235172272E-2,6.389009953E-2,-4.959392548E-2
2.096703277E1,-2.019762993E-3,1.035770178E-1,-3.669643402E-2
2.098296295E1,-4.796305299E-2,1.388369799E-1,2.410602570E-2
2.099895416E1,-7.646548748E-2,9.710943699E-2,4.428958893E-2
2.101491485E1,-1.044270396E-2,9.763741493E-2,9.808540344E-2
2.103084503E1,-7.380396128E-3,8.649158478E-2,-2.933311462E-2
2.104686675E1,-9.296834469E-3,1.122293472E-1,-4.562091827E-2
2.106285797E1,-8.313667774E-2,1.656614542E-1,4.598617554E-2
2.107884918E1,-6.512641907E-3,8.429908752E-2,8.944225311E-2
2.109484039E1,3.216269612E-2,1.001409292E-1,5.149841309E-2
2.111080108E1,4.656308889E-2,6.588876247E-2,-1.244926453E-2
2.112676177E1,3.653487563E-2,9.063124657E-2,-7.140922546E-2
2.114272247E1,4.387435317E-2,7.850527763E-2,-1.735887527E-1
2.115868316E1,-3.656923771E-3,9.036445618E-2,-6.544876099E-2
2.117464385E1,-3.077596426E-2,1.062816381E-1,1.374149323E-2
2.119063507E1,-1.948139071E-2,9.449088573E-2,4.968166351E-2
2.120659576E1,-3.045183420E-2,8.251392841E-2,6.168556213E-2
2.122255645E1,-4.394528270E-2,1.102762222E-1,4.742240906E-2
2.123857818E1,-4.160356522E-2,8.730852604E-2,2.407360077E-2
2.125453887E1,-3.210031986E-2,1.250466108E-1,-5.409908295E-2
2.127049957E1,4.210761189E-2,9.061288834E-2,-6.996440887E-2
2.128649078E1,6.438121200E-2,9.531617165E-2,-5.967235565E-2
2.130248199E1,6.048065424E-2,1.106513739E-1,-1.236839294E-1
2.131841216E1,-8.838683367E-3,1.163783073E-1,1.549053192E-2
2.133443389E1,-6.085756421E-2,1.128724813E-1,4.411697388E-2
2.135039459E1,-5.763208866E-2,1.149108410E-1,1.228294373E-1
2.136638580E1,1.291066408E-3,1.060947180E-1,9.155464172E-2
2.138237701E1,-8.073925972E-3,6.205677986E-2,-3.526020050E-2
2.139833770E1,2.050903440E-2,6.634616852E-2,-5.164337158E-2
2.141432891E1,2.645650506E-2,8.587050438E-2,-1.107597351E-1
2.143035064E1,-1.004183292E-2,1.184058189E-1,-9.572219849E-2
2.144634185E1,3.691613674E-4,1.343550682E-1,4.098224640E-2
2.146230254E1,-4.795351624E-2,1.464313269E-1,6.018352509E-2
2.147826324E1,-3.841662407E-2,1.493047476E-1,6.048774719E-2
2.149422393E1,-3.846096992E-2,9.314692020E-2,-6.106185913E-2
2.151024566E1,4.851967096E-3,1.343500614E-1,-1.109504700E-1
2.152623687E1,2.787798643E-3,8.849132061E-2,-1.780986786E-2
2.154219757E1,1.784193516E-2,9.183549881E-2,1.105852127E-1
2.155815826E1,8.390963078E-3,7.559776306E-2,1.695203781E-1
2.157414947E1,-6.623566151E-3,9.370410442E-2,4.949569702E-2
2.159014068E1,-5.539879203E-2,1.068608761E-1,3.529262543E-2
2.160613189E1,-2.832531929E-3,6.223082542E-2,-5.168914795E-3
2.162209258E1,1.262962818E-2,6.573629379E-2,-3.621196747E-2
2.163805328E1,1.626971364E-2,4.692459106E-2,-1.245861053E-1
2.165404449E1,-2.348667383E-2,6.292116642E-2,-9.300518036E-2
2.167006622E1,-2.222505212E-2,1.006209850E-1,-1.211376190E-1
2.168602691E1,-6.831470132E-2,1.758960485E-1,-3.220176697E-2
2.170198760E1,-3.646847606E-2,2.093501091E-1,4.692173004E-2
2.171794830E1,-2.421259880E-3,1.858060360E-1,9.236526489E-2
2.173393951E1,3.924253583E-2,1.464297771E-1,1.044597626E-1
2.174993072E1,4.503419995E-2,8.905315399E-2,1.859188080E-2
2.176589141E1,-1.265710592E-2,7.447004318E-3,3.336620331E-2
2.178185211E1,8.853137493E-3,6.989598274E-3,3.142833710E-2
2.179784332E1,-1.783287525E-2,5.530214310E-2,-9.237861633E-2
2.181383453E1,1.470354199E-2,5.877816677E-2,-2.018661499E-1
2.182976470E1,-4.449307919E-3,1.105730534E-1,-3.891849518E-2
2.184581695E1,1.751753688E-2,1.477197409E-1,-4.149818420E-2
2.186180816E1,-2.137836814E-2,1.772302389E-1,2.029800415E-2
2.187779937E1,6.114542484E-3,1.346057653E-1,1.056814194E-1
2.189376007E1,-5.673229694E-3,1.002008915E-1,1.620578766E-1
2.190972076E1,1.781696081E-2,6.190109253E-2,-8.791923523E-3
2.192571197E1,6.090879440E-3,5.032789707E-2,-1.293983459E-1
2.194170318E1,-7.172939181E-2,3.947877884E-2,-8.649826050E-3
2.195766387E1,-2.084299922E-2,1.970195770E-2,8.735656738E-3
2.197368560E1,-8.769899607E-3,9.421992302E-2,6.188678741E-2
2.198964630E1,7.018291950E-2,8.592522144E-2,4.067802429E-2
2.200560699E1,3.101146221E-2,9.894382954E-2,8.377456665E-2
2.202156768E1,8.413670957E-2,1.113185883E-1,1.194152832E-1
2.203752838E1,7.372617722E-3,5.973994732E-2,7.109069824E-2
2.205348907E1,-1.064929068E-1,6.597638130E-2,1.304531097E-1
2.206941925E1,-1.101809740E-2,5.253481865E-2,1.301069260E-1
2.208547149E1,1.365202665E-2,7.261896133E-2,-3.906250000E-3
2.210146270E1,6.106604636E-2,8.656203747E-2,-5.633258820E-2
2.211742340E1,5.475580692E-3,9.396994114E-2,-2.212858200E-1
2.213341461E1,2.246761322E-2,1.406009197E-1,-5.632400513E-2
2.214937530E1,-4.671111703E-2,1.502689123E-1,-4.234409332E-2
2.216533599E1,-7.702288032E-2,1.218370199E-1,-5.608558655E-3
2.218129669E1,-1.978215575E-2,5.517232418E-2,5.031585693E-3
2.219725738E1,5.375936627E-2,5.855071545E-2,-2.490997314E-3
2.221324859E1,-1.530605555E-2,5.164253712E-2,-2.799034119E-3
2.222923980E1,-1.593232155E-2,6.598353386E-2,-6.044769287E-2
2.224520050E1,-2.072957158E-2,3.795588017E-2,-4.384803772E-2
2.226116119E1,-3.162723780E-2,7.763993740E-2,6.132602692E-2
2.227712188E1,-1.210697889E-1,2.764248848E-2,-4.866313934E-2
2.229311309E1,-1.096558869E-1,5.191159248E-2,4.735755920E-2
2.230904327E1,-3.990188241E-2,5.376720428E-2,3.820133209E-2
2.232509551E1,1.774021983E-2,3.817868233E-2,3.867053986E-2
2.234108672E1,4.331444204E-2,3.302133083E-2,6.531810760E-2
2.235710845E1,1.790088415E-2,7.400918007E-2,3.916931152E-2
2.237306915E1,1.630559564E-2,3.166925907E-2,-8.543014526E-3
2.238902984E1,-2.951791883E-2,4.199969769E-2,-8.292198181E-3
2.240502105E1,-2.810353041E-2,2.407085896E-2,3.030490875E-2
2.242101226E1,1.723656058E-2,4.399776459E-3,-1.489162445E-2
2.243697296E1,-2.130520344E-2,3.213685751E-2,-5.160903931E-2
2.245293365E1,1.598680019E-2,1.622223854E-2,-3.227043152E-2
2.246895538E1,2.223432064E-2,2.523005009E-3,5.029201508E-2
2.248491607E1,2.418720722E-2,8.150637150E-3,9.577369690E-2
2.250087676E1,-5.722641945E-3,1.237511635E-2,6.720447540E-2
2.251686798E1,2.428564429E-2,-2.588212490E-3,3.172588348E-2
2.253285919E1,-3.891476989E-2,-8.870899677E-3,-1.231193542E-3
2.254878936E1,-3.256157041E-2,9.323120117E-3,-1.975536346E-2
2.256481109E1,-1.241743565E-2,2.864021063E-2,-4.546070099E-2
2.258080230E1,9.047538042E-3,8.893513680E-2,3.178024292E-2
2.259682403E1,-2.578914165E-2,9.201878309E-2,-2.247714996E-2
2.261278472E1,-1.804775000E-2,8.564776182E-2,8.148002625E-2
2.262874542E1,-1.074281335E-2,6.381118298E-2,1.184463501E-3
2.264479766E1,1.425734162E-2,5.670267344E-2,1.429080963E-2
2.266078887E1,2.283385396E-2,-3.976881504E-2,-2.528667450E-2
2.267674957E1,1.924133301E-2,-4.538661242E-2,1.385784149E-2
2.269274078E1,-1.899179816E-2,-7.560074329E-3,5.539989471E-2
2.270870147E1,7.180154324E-3,1.837539673E-2,5.867862701E-2
2.272466216E1,-4.440358281E-2,3.559094667E-2,9.320068359E-2
2.274062286E1,-2.832520008E-2,5.995154381E-3,7.977962494E-2
2.275661407E1,-3.221204877E-2,-3.700852394E-3,1.846694946E-2
2.277254425E1,-1.204654574E-2,-2.306479216E-2,5.538463593E-2
2.278856597E1,-3.172905743E-2,-1.662397385E-2,8.043956757E-2
2.280452667E1,-9.682044387E-3,-1.356723905E-2,-1.402568817E-2
2.282048736E1,-1.986563206E-2,2.549502254E-2,-1.258277893E-2
2.283644805E1,4.349297285E-2,2.488559484E-2,-7.094192505E-2
2.285243926E1,4.235437512E-2,5.192115903E-2,6.211662292E-2
2.286843048E1,-3.622609377E-2,-3.155767918E-4,3.953742981E-2
2.288439117E1,-1.460486650E-2,8.771508932E-3,8.162593842E-2
2.290035186E1,-2.761185169E-2,-2.698874474E-2,4.964637756E-2
2.291634307E1,-7.534414530E-3,2.137809992E-3,-6.048202515E-3
2.293230377E1,3.533428907E-2,1.853168011E-2,-4.961395264E-2
2.294829498E1,1.553165913E-2,3.729143739E-2,-2.611446381E-2
2.296425567E1,1.321595907E-2,3.580626845E-2,-5.174636841E-3
2.298021636E1,2.548444271E-2,1.803839207E-2,5.926132202E-2
2.299617706E1,-2.100643516E-2,2.096869051E-2,8.281803131E-2
2.301213775E1,4.859238863E-3,1.852634549E-2,-2.753353119E-2
2.302809844E1,3.308743238E-3,1.408901811E-2,-1.568794250E-2
2.304412017E1,-1.630181074E-2,6.886149943E-2,-6.181716919E-3
2.306014190E1,-3.726422787E-2,7.599063218E-2,-2.297592163E-2
2.307610259E1,-5.590963364E-2,5.391949415E-2,5.763053894E-3
2.309209380E1,-1.800268888E-2,4.476118088E-2,1.230258942E-1
2.310805450E1,-1.084995270E-2,2.045531571E-2,1.468563080E-1
2.312404571E1,-1.784992218E-2,5.399884284E-2,8.684539795E-2
2.314006744E1,2.927350998E-2,4.660100490E-2,8.662033081E-2
2.315602813E1,-9.920895100E-4,7.532559335E-3,-3.091144562E-2
2.317201934E1,-2.321103215E-2,1.178018749E-2,3.828334808E-2
2.318798004E1,-2.010121942E-2,-6.189178675E-3,-7.298469543E-3
2.320397125E1,8.940517902E-3,2.753930166E-2,4.671096802E-3
2.321996246E1,-5.005419254E-3,3.212172538E-2,3.582191467E-2
2.323592315E1,-7.219314575E-3,5.751492083E-2,-3.125000000E-2
2.325185333E1,7.284939289E-3,3.448159248E-2,-1.936912537E-2
2.326787506E1,-6.327003241E-2,1.047333330E-1,1.074218750E-1
2.328386627E1,1.069372892E-2,9.286137298E-3,6.906890869E-2
2.329982696E1,-5.714678764E-2,3.967690840E-2,9.311866760E-2
2.331578765E1,-4.311755300E-2,-7.670551538E-3,9.093761444E-2
2.333177886E1,-3.090068698E-2,3.774979338E-2,8.161354065E-2
2.334777008E1,-4.476836324E-2,2.746919543E-2,7.223892212E-2
2.336373077E1,-6.286126375E-2,6.083660200E-2,3.889083862E-2
2.337969146E1,-9.565472603E-3,6.089694798E-2,8.448505402E-2
2.339568267E1,3.653287888E-3,1.537341624E-2,5.342960358E-2
2.341167388E1,1.693904400E-2,4.401379079E-2,3.436946869E-2
2.342760406E1,2.868458629E-2,7.112020254E-2,-1.335906982E-2
2.344359527E1,3.771272302E-2,7.273378223E-2,-3.232765198E-2
2.345958648E1,3.993272781E-2,2.319531143E-2,-9.984970093E-4
2.347554717E1,-5.318284035E-2,3.263095021E-2,6.636619568E-2
2.349153839E1,2.467995882E-2,-5.291089416E-3,1.601428986E-1
2.350756011E1,-3.768444061E-2,2.616913617E-2,1.149950027E-1
2.352352081E1,-9.535312653E-3,4.258036613E-2,7.456970215E-2
2.353948150E1,-2.968457341E-2,4.570181668E-2,-6.644058228E-2
2.355544219E1,3.202350438E-2,7.549035549E-2,-1.116991043E-1
2.357143340E1,-1.125425100E-2,8.187268674E-2,-8.986377716E-2
2.358745513E1,-4.821935296E-2,8.301573992E-2,-1.284313202E-2
2.360341583E1,-9.134700894E-2,7.786351442E-2,1.648521423E-2
2.361937652E1,9.967863560E-3,5.563318729E-2,2.449703217E-2
2.363533721E1,2.370393276E-2,-5.241549015E-2,-5.720138550E-3
2.365132842E1,-8.575716615E-2,6.810557842E-2,3.826045990E-2
2.366731964E1,4.308128357E-2,3.833517432E-2,1.826686859E-1
2.368331085E1,-3.689134121E-2,2.857136726E-2,1.305484772E-1
2.369927154E1,-2.961108088E-2,2.243161201E-2,1.333503723E-1
2.371523223E1,9.127914906E-3,1.075726748E-2,1.121358871E-1
2.373119293E1,-3.405883908E-2,-8.770108223E-3,6.941795349E-2
2.374718414E1,1.043438911E-3,-2.365824580E-2,5.208969116E-3
2.376314483E1,-1.053029299E-2,3.096073866E-3,-1.444816589E-3
2.377910552E1,-5.255693197E-2,5.680924654E-2,5.414867401E-2
2.379509674E1,-2.430927753E-2,6.634169817E-2,5.466365814E-2
2.381105743E1,-2.135026455E-2,7.340049744E-2,6.460475922E-2
2.382698760E1,7.015109062E-3,3.758341074E-2,2.426528931E-2
2.384303985E1,-9.648263454E-3,4.607468843E-2,-5.908012390E-2
2.385900054E1,6.365156174E-2,3.707098961E-2,-7.770347595E-2
2.387499175E1,2.877745032E-2,3.148299456E-2,-1.246452332E-2
2.389098297E1,9.773463011E-3,3.756350279E-2,5.013465881E-3
2.390688262E1,-2.796466649E-2,4.917389154E-2,1.285457611E-2
2.392290435E1,-5.777478218E-3,2.319407463E-2,5.898571014E-2
2.393889556E1,-8.170738816E-3,5.072927475E-2,-3.597545624E-2
2.395488677E1,-1.603491604E-2,-3.952324390E-3,1.635007858E-1
2.397081695E1,1.611153781E-2,4.351496696E-3,1.815986633E-2
2.398677764E1,-1.271082461E-2,2.338278294E-2,3.792476654E-2
2.400282989E1,4.272694886E-2,8.990889788E-2,8.396244049E-2
2.401882110E1,-1.317933202E-3,7.571607828E-2,4.846191406E-2
2.403481231E1,2.204222977E-2,6.260073185E-2,2.964591980E-2
2.405080352E1,-1.828259230E-2,5.643165112E-2,-4.901504517E-2
2.406673370E1,1.212790608E-3,1.797497272E-2,-4.134178162E-2
2.408275543E1,-2.251845598E-2,4.108232260E-2,-7.212638855E-3
2.409874664E1,5.938874185E-2,1.554310322E-2,-8.810997009E-3
2.411470733E1,-3.159850836E-3,1.070684195E-2,-5.459785461E-3
2.413069854E1,3.839844465E-2,1.077398062E-1,9.945869446E-3
2.414665924E1,-2.453787625E-2,1.096546650E-2,1.809082031E-1
2.416261993E1,-1.699486375E-2,3.900021315E-2,7.881546021E-2
2.417858062E1,9.583920240E-3,5.121183395E-2,5.084228516E-2
2.419457183E1,1.640231907E-2,2.106922865E-2,4.428386688E-2
2.421050201E1,2.880713344E-2,3.585064411E-2,6.398487091E-2
2.422652374E1,-6.393343210E-4,6.153494120E-2,-7.342338562E-3
2.424248443E1,3.286568820E-2,1.068797112E-1,1.476573944E-2
2.425844512E1,-3.200654685E-2,1.056458354E-1,6.551742554E-2
2.427443634E1,9.455993772E-3,1.117655039E-1,1.042814255E-1
2.429042754E1,-5.821375549E-2,6.075555086E-2,6.888008118E-2
2.430641876E1,-3.711062670E-2,1.724231243E-2,1.556167603E-1
2.432237945E1,-3.678813577E-2,-2.236962318E-3,7.718563080E-2
2.433834014E1,2.866725624E-2,2.593553066E-2,1.790332794E-2
2.435430084E1,5.875404179E-2,7.536345720E-2,-1.749992371E-2
2.437026153E1,3.749467432E-2,5.864614248E-2,-5.997467041E-2
2.438628326E1,1.085647941E-2,2.769678831E-2,-4.076004028E-3
2.440224395E1,-4.512014985E-2,-1.611644030E-2,6.625843048E-2
2.441820465E1,-4.955087602E-2,-1.251977682E-2,1.365394592E-1
2.443416534E1,-2.834339440E-2,-2.836489677E-2,1.300182343E-1
2.445015655E1,7.397562265E-3,6.642103195E-3,6.593418121E-2
2.446614776E1,-4.315331578E-3,5.435270071E-2,8.072280884E-2
2.448210845E1,-6.953701377E-3,8.122003078E-2,-7.602691650E-3
2.449806915E1,3.243644536E-2,1.061777472E-1,-2.908611298E-2
2.451409088E1,1.264762878E-2,1.308880448E-1,-4.579067230E-2
2.453008209E1,-2.890902758E-2,9.805053473E-2,2.607822418E-2
2.454610382E1,-5.618959665E-2,9.291195869E-2,8.332252502E-2
2.456209503E1,-2.996441722E-2,7.130104303E-2,-2.932453156E-2
2.457802520E1,-2.164781094E-2,3.317439556E-2,8.569240570E-2
2.459401641E1,-6.215204298E-2,3.072226048E-2,1.194829941E-1
2.461000762E1,2.850131691E-2,8.099699020E-2,1.436357498E-1
2.462593780E1,-5.021427572E-2,8.836781979E-2,9.332656860E-2
2.464199004E1,3.838431835E-2,8.724129200E-2,-4.938125610E-3
2.465795074E1,-3.699280322E-2,8.062624931E-2,6.839752197E-3
2.467394195E1,4.044464231E-2,7.760888338E-2,-4.347515106E-2
2.468993316E1,-1.868186891E-2,5.799102783E-2,-3.125858307E-2
2.470586334E1,7.576227188E-3,5.514341593E-2,1.008167267E-1
2.472188507E1,-4.282322526E-2,6.449413300E-2,1.108093262E-1
2.473790679E1,-1.675283909E-2,3.985965252E-2,7.744121552E-2
2.475389800E1,2.186986804E-2,6.532675028E-2,-1.361083984E-2
2.476985870E1,3.985993564E-2,6.414556503E-2,-1.238794327E-1
2.478581939E1,7.438907027E-2,7.861572504E-2,-3.537082672E-2
2.480181060E1,-5.392178893E-3,9.611117840E-2,1.969242096E-2
2.481780181E1,-7.924258709E-3,9.328967333E-2,1.178665161E-1
2.483376251E1,-3.665418923E-2,5.478394032E-2,1.847200394E-1
2.484969268E1,2.931630611E-2,8.353245258E-2,1.484556198E-1
2.486571441E1,4.587326944E-2,1.122255325E-1,1.573715210E-1
2.488167510E1,2.861171961E-3,8.148813248E-2,2.481079102E-2
2.489763580E1,-1.021817327E-2,4.861581326E-2,1.914787292E-2
2.491359649E1,-1.219789684E-2,7.294362783E-2,6.394100189E-2
2.492955718E1,-2.110016346E-2,9.029030800E-2,3.693675995E-2
2.494548736E1,-4.092527926E-2,9.220945835E-2,1.127719879E-1
2.496153961E1,2.598211169E-2,8.118891716E-2,6.144428253E-2
2.497753082E1,-1.527410746E-2,5.174410343E-2,-3.789997101E-2
2.499352203E1,-3.866665065E-2,5.443561077E-2,-1.800060272E-2
2.500948272E1,-6.696563959E-2,7.017672062E-2,-9.029197693E-2
2.502544342E1,-9.774939716E-2,4.681050777E-2,-1.195907593E-2
2.504143463E1,-4.585717618E-2,5.330646038E-2,9.776878357E-2
2.505742584E1,-1.484960318E-2,7.002395391E-2,5.663204193E-2
2.507338653E1,1.157295704E-2,1.377424002E-1,-1.824092865E-2
2.508937774E1,1.247061789E-2,1.127415895E-1,4.541015625E-2
2.510539947E1,-3.846804798E-2,5.428951979E-2,1.540088654E-2
2.512136016E1,-2.214510739E-2,6.423592567E-2,4.510784149E-2
2.513729034E1,-7.452651858E-3,1.009807587E-1,-9.992408752E-2
2.515331207E1,-4.304341972E-2,8.559954166E-2,-7.722759247E-2
2.516930328E1,-1.293250918E-2,1.049060822E-1,1.277351379E-2
2.518523345E1,-2.119392157E-3,1.062794328E-1,9.342288971E-2
2.520128570E1,-3.026959300E-2,1.407452822E-1,1.741065979E-1
2.521727691E1,2.045431733E-2,1.335572004E-1,1.828622818E-1
2.523326812E1,2.768826485E-2,1.273990273E-1,1.532325745E-1
2.524922882E1,1.636783779E-2,1.097733378E-1,1.186790466E-1
2.526518951E1,3.326448798E-2,7.817661762E-2,6.007957458E-2
2.528115020E1,2.437613904E-2,3.308379650E-2,4.927349091E-2
2.529708038E1,7.550716400E-2,1.473468840E-1,7.680320740E-2
2.531304107E1,-1.048340350E-1,6.262287498E-2,-1.254262924E-1
2.532903228E1,-3.951683640E-2,6.236684322E-2,-2.861213684E-2
2.534505401E1,-6.091335416E-2,1.294294894E-1,-2.662277222E-2
2.536098419E1,-4.443146288E-2,1.846447587E-1,4.919528961E-2
2.537694488E1,-3.914530575E-2,1.745094359E-1,6.276416779E-2
2.539293609E1,-2.636803687E-2,1.345511377E-1,2.128696442E-2
2.540889678E1,4.113346338E-3,1.357001364E-1,4.211807251E-2
2.542485748E1,-4.135712981E-3,8.858349919E-2,4.872798920E-2
2.544084869E1,-2.262100577E-3,9.789112210E-2,4.105854034E-2
2.545683990E1,-4.003295302E-2,9.018632770E-2,1.338872910E-1
2.547280059E1,-4.488468170E-2,1.465077847E-1,1.260099411E-1
2.548876129E1,1.883426309E-2,1.488668323E-1,7.251834869E-2
2.550478301E1,-3.376683593E-2,1.673260480E-1,1.218566895E-1
2.552074371E1,-2.709631622E-2,8.815924823E-2,-4.183101654E-2
2.553670440E1,-3.636851907E-3,1.269746572E-1,-1.359720230E-1
2.555269561E1,8.845776320E-4,9.932632744E-2,-7.674121857E-2
2.556868682E1,-3.344954550E-2,1.606120467E-1,1.129531860E-2
2.558470855E1,-7.485294342E-2,1.435434371E-1,9.693145752E-2
2.560066925E1,-1.906295866E-2,1.483444273E-1,1.514043808E-1
2.561662994E1,2.252208441E-2,9.583779424E-2,3.349971771E-2
2.563262115E1,9.435057640E-3,1.351969987E-1,-2.212047577E-2
2.564861236E1,1.598241925E-2,1.597975045E-1,-1.183471680E-1
2.566454254E1,2.429076284E-2,1.438625455E-1,-1.282186508E-1
2.568056426E1,5.130909383E-3,1.554832160E-1,5.359458923E-2
2.569658599E1,-4.260648787E-2,1.722589135E-1,3.443145752E-2
2.571254669E1,-1.753386855E-2,2.094808668E-1,1.804847717E-1
2.572853790E1,-2.486692369E-2,2.182801962E-1,3.504009247E-1
2.574449859E1,1.384645700E-2,1.640323400E-1,1.132268906E-1
2.576045928E1,9.228632599E-2,1.723818779E-1,7.477474213E-2
2.577641998E1,7.850845158E-2,1.392696202E-1,-5.937004089E-2
2.579238067E1,1.025075465E-1,1.540677249E-1,-9.521389008E-2
2.580834136E1,4.447475076E-4,1.823935211E-1,-2.083587646E-2
2.582424102E1,3.358595073E-2,1.904445738E-1,-2.780246735E-2
2.584029327E1,-1.865978539E-2,1.567805111E-1,5.148601532E-2
2.585628448E1,-3.224533051E-3,1.548981369E-1,-1.520633698E-2
2.587224517E1,-4.590838030E-2,1.444006413E-1,-6.743717194E-2
2.588820587E1,-6.033783406E-2,1.417988241E-1,-7.410717010E-2
2.590419708E1,-7.378631830E-2,1.389646083E-1,-5.441284180E-2
2.592015777E1,-8.113425225E-2,1.970925033E-1,1.353015900E-1
2.593611846E1,-7.950548083E-2,2.024503946E-1,4.017257690E-2
2.595207916E1,3.629148006E-3,2.030323446E-1,6.716060638E-2
2.596807037E1,1.579395682E-2,2.091529071E-1,-2.317905426E-2
2.598409210E1,3.915868700E-3,1.998825371E-1,-1.298713684E-2
2.600005279E1,2.053182572E-2,1.600451767E-1,6.795883179E-3
2.601601348E1,-1.666099578E-2,1.319097579E-1,1.176128387E-1
2.603197418E1,5.077518895E-2,1.179247200E-1,7.297897339E-2
2.604793487E1,4.698130861E-2,1.252630949E-1,-3.374099731E-2
2.606389556E1,5.394001678E-2,1.630386412E-1,-3.026771545E-2
2.607991729E1,-5.018199235E-2,1.320807636E-1,-3.395557404E-2
2.609593902E1,-4.986583441E-2,1.190687120E-1,-3.047084808E-2
2.611189971E1,2.299740911E-3,1.377812624E-1,-6.160736084E-4
2.612789092E1,-3.055181354E-2,1.735926270E-1,3.723907471E-2
2.614385162E1,-1.365635544E-2,1.863826513E-1,-3.621101379E-2
2.615984283E1,-3.895276785E-2,1.780366898E-1,1.569461823E-2
2.617583404E1,2.460581437E-2,1.411042809E-1,-5.933284760E-2
2.619179473E1,3.836304322E-2,1.382297277E-1,-8.420085907E-2
2.620778594E1,-5.017094314E-3,2.199177146E-1,2.959346771E-2
2.622380767E1,5.151079968E-2,2.000825405E-1,1.289100647E-1
2.623976837E1,-6.415084749E-2,1.882815957E-1,1.565256119E-1
2.625572906E1,-5.505494773E-2,1.434763074E-1,1.292524338E-1
2.627168975E1,-1.975215971E-2,1.377435923E-1,1.021480560E-1
2.628765045E1,-1.390212774E-2,1.357790828E-1,-1.425743103E-3
2.630358062E1,4.507169127E-3,1.250405908E-1,-8.583068848E-2
2.631957183E1,3.896652907E-2,1.689186096E-1,-1.104755402E-1
2.633559356E1,-4.621708393E-2,1.719872952E-1,-5.627632141E-2
2.635161529E1,-2.085968852E-3,2.094079256E-1,2.422142029E-2
2.636757598E1,-3.362407535E-2,1.724113822E-1,-1.014328003E-2
2.638353668E1,-4.612170160E-2,1.792823672E-1,2.011108398E-2
2.639952789E1,-1.068513840E-2,1.187301874E-1,-6.688308716E-2
2.641551910E1,-3.001402318E-2,1.709504724E-1,5.942440033E-2
2.643147979E1,1.180655882E-2,1.742535233E-1,-7.987689972E-2
2.644750152E1,6.424111873E-2,1.433621049E-1,-5.387878418E-2
2.646346221E1,5.788936466E-2,1.748694777E-1,-1.588726044E-2
2.647942291E1,1.846766844E-2,1.916195154E-1,-2.327823639E-2
2.649538360E1,-2.552165091E-2,1.591444016E-1,-4.266452789E-2
2.651134429E1,5.783692002E-3,1.613655090E-1,3.604316711E-2
2.652733550E1,-1.222881675E-2,1.626720428E-1,3.561210632E-2
2.654335723E1,-2.064592391E-2,1.257956028E-1,-7.758522034E-2
2.655931793E1,1.623297483E-2,1.755095720E-1,2.840042114E-3
2.657524810E1,-2.511650324E-3,1.828559637E-1,-5.088138580E-2
2.659123931E1,8.243359625E-3,1.992887259E-1,6.304550171E-2
2.660720001E1,1.105348766E-2,1.929045916E-1,4.784011841E-2
2.662319122E1,-2.955712378E-3,1.610727310E-1,5.676937103E-2
2.663918243E1,-1.187846065E-4,1.522538662E-1,3.712844849E-2
2.665514312E1,-6.508231163E-4,1.308995485E-1,-1.620674133E-2
2.667110382E1,-8.366128802E-2,1.608369350E-1,-2.445411682E-2
2.668706451E1,-1.220002770E-2,1.119197607E-1,-4.258918762E-2
2.670299468E1,-9.775437415E-3,1.388980150E-1,4.916095734E-2
2.671904693E1,-2.932594717E-2,1.576623917E-1,6.962776184E-3
2.673506866E1,-2.260677516E-2,9.516358376E-2,1.295852661E-2
2.675109039E1,-2.879839391E-2,1.415635347E-1,-6.702613831E-2
2.676708160E1,2.861506492E-2,1.574882269E-1,2.055931091E-2
2.678301177E1,1.496171951E-2,1.642326117E-1,-9.226799011E-3
2.679903350E1,2.141830325E-2,1.560750008E-1,5.200004578E-2
2.681505523E1,-1.494328678E-2,1.711088419E-1,2.235889435E-2
2.683101592E1,-1.631639898E-2,1.465765238E-1,-3.133773804E-2
2.684697662E1,-4.332843423E-2,1.103601456E-1,3.194904327E-2
2.686299835E1,-3.661103547E-2,1.200184822E-1,3.263092041E-2
2.687898956E1,-4.465167224E-2,1.369674206E-1,9.519386292E-2
2.689495025E1,-2.576720715E-2,1.206283569E-1,1.241817474E-1
2.691091094E1,1.160418987E-2,1.436634064E-1,1.054172516E-1
2.692687164E1,-1.335681975E-2,1.588742733E-1,-9.011173248E-2
2.694286285E1,-2.326107025E-2,1.514279842E-1,-2.211475372E-2
2.695882354E1,-6.027241051E-2,1.317638159E-1,-1.973152161E-3
2.697481475E1,3.181484342E-2,1.661692858E-1,-9.418678284E-2
2.699077545E1,2.101641893E-2,1.794868708E-1,-1.262397766E-1
2.700676666E1,1.845244318E-2,1.669474840E-1,-7.932472229E-2
2.702272735E1,-5.961179733E-3,1.466237307E-1,-1.349830627E-2
2.703868804E1,-2.495612204E-2,1.277288198E-1,1.144313812E-2
2.705464874E1,-7.011941075E-2,1.215659380E-1,8.177661896E-2
2.707060943E1,-3.700433671E-2,1.528367996E-1,7.834625244E-2
2.708657012E1,-3.156067431E-2,1.242357492E-1,-4.102706909E-3
2.710250030E1,-2.698551118E-2,1.091972589E-1,-2.931976318E-2
2.711852203E1,1.457814872E-2,1.190425158E-1,5.270862579E-2
2.713451324E1,2.023927122E-2,1.177427769E-1,9.867382050E-2
2.715050445E1,-8.523344994E-3,1.189604998E-1,1.353826523E-1
2.716646514E1,6.758564711E-2,1.266614199E-1,-1.896476746E-2
2.718242584E1,6.222151965E-2,1.108424664E-1,-1.429271698E-2
2.719838653E1,-1.194419712E-2,7.457804680E-2,-1.140899658E-1
2.721434722E1,3.528614342E-2,8.787035942E-2,-1.248149872E-1
2.723030792E1,-6.403326988E-3,8.318328857E-2,-4.030132294E-2
2.724629913E1,-4.694341123E-2,8.803331852E-2,2.708721161E-2
2.726232086E1,1.817645133E-2,1.106626987E-1,7.550048828E-2
2.727825103E1,1.818168163E-2,1.410546303E-1,-4.341125488E-2
2.729421172E1,4.952018708E-2,1.321612597E-1,-6.161308289E-2
2.731020294E1,1.274564862E-2,1.043334007E-1,-8.940315247E-2
2.732616363E1,-5.170431733E-2,1.073609591E-1,-2.170181274E-2
2.734212432E1,-5.126665533E-2,1.101777554E-1,1.151046753E-1
2.735808502E1,-3.580719233E-2,1.068032980E-1,1.563348770E-1
2.737404571E1,-9.982407093E-3,1.509668827E-1,-3.906059265E-2
2.739000640E1,2.099396288E-2,1.465353966E-1,-6.435012817E-2
2.740596710E1,6.050883234E-2,1.230214834E-1,1.321792603E-3
2.742186675E1,-1.584321260E-2,1.360889673E-1,-4.943847656E-3
2.743788848E1,5.837256461E-2,1.352102757E-1,-2.797317505E-2
2.745391021E1,3.412544727E-3,1.414929628E-1,3.516674042E-2
2.746990142E1,2.163231373E-3,1.340093613E-1,4.856109619E-3
2.748589263E1,-1.051981747E-2,1.249322891E-1,-3.754138947E-2
2.750185333E1,-2.836863697E-2,1.197825670E-1,-9.694480896E-2
2.751781402E1,-6.220996380E-2,1.215404272E-1,3.004360199E-2
2.753377471E1,-4.790601134E-2,9.984362125E-2,4.443168640E-2
2.754976592E1,-1.150149107E-2,9.168851376E-2,2.065086365E-2
2.756578765E1,-1.362484694E-2,1.148340702E-1,4.031181335E-2
2.758174835E1,7.528617978E-3,1.639454365E-1,-8.085155487E-2
2.759770904E1,1.971602440E-3,1.349577904E-1,-1.107673645E-1
2.761363922E1,-1.754739881E-2,9.994602203E-2,-7.860946655E-2
2.762959991E1,6.259471178E-3,1.162072420E-1,-4.420852661E-2
2.764556060E1,-4.251424968E-2,1.096686125E-1,-6.464481354E-2
2.766152130E1,3.038287163E-3,1.484582424E-1,1.156883240E-1
2.767751251E1,8.661717176E-3,1.415956020E-1,2.826786041E-2
2.769344268E1,-1.998014748E-2,1.545169353E-1,7.720851898E-2
2.770943389E1,1.997093856E-2,1.405264139E-1,9.950447083E-2
2.772542510E1,-3.383934498E-3,1.114602089E-1,6.605052948E-2
2.774135528E1,7.148672640E-2,1.026569605E-1,-3.535270691E-3
2.775737701E1,1.452557743E-2,9.448504448E-2,3.387451172E-3
2.777336822E1,1.422087848E-2,5.139696598E-2,-1.137638092E-2
2.778932891E1,-2.436275780E-2,5.468451977E-2,1.241588593E-2
2.780528961E1,1.653462648E-3,4.101014137E-2,1.229763031E-2
2.782131134E1,-4.219312966E-2,6.157934666E-2,5.075359344E-2
2.783727203E1,1.623675227E-3,8.540761471E-2,-3.505229950E-2
2.785320220E1,3.594741225E-3,8.330893517E-2,-7.981014252E-2
2.786922393E1,2.284316719E-2,1.195981503E-1,-1.556615829E-1
2.788521514E1,-5.416645110E-2,1.501994133E-1,-4.262161255E-2
2.790111480E1,-5.812743306E-2,1.773923635E-1,8.457469940E-2
2.791716705E1,-5.142018199E-2,1.485128403E-1,9.224605560E-2
2.793315826E1,-1.087100804E-2,1.432787180E-1,3.772735596E-2
2.794917999E1,-3.879934549E-3,9.372079372E-2,-1.219558716E-2
2.796511016E1,1.635479927E-2,4.928576946E-2,1.917076111E-2
2.798107086E1,-1.284277439E-2,4.806482792E-2,1.071147919E-1
2.799709258E1,-5.372911692E-4,4.583656788E-2,3.479003906E-2
2.801308380E1,-1.607465744E-2,5.280876160E-2,-1.146316528E-3
2.802904449E1,3.041610122E-3,7.368266582E-2,-9.401226044E-2
2.804500518E1,-2.075499296E-2,1.020655632E-1,-6.717967987E-2
2.806102691E1,-1.039832830E-2,9.878122807E-2,-6.937313080E-2
2.807698760E1,-6.444223225E-2,1.279656887E-1,5.027866364E-2
2.809294830E1,-2.383075655E-2,9.425246716E-2,3.355026245E-2
2.810890899E1,-9.938791394E-3,8.273541927E-2,5.062389374E-2
2.812486968E1,3.391288221E-2,1.444709301E-1,-8.051872253E-2
2.814079986E1,1.009374857E-3,1.115881205E-1,-4.190731049E-2
2.815682159E1,2.233915031E-2,6.454062462E-2,-2.728557587E-2
2.817284332E1,1.118829846E-2,9.554827213E-2,4.213809967E-2
2.818880401E1,1.703697443E-2,8.874607086E-2,1.811027527E-2
2.820479522E1,-1.527339220E-3,1.107527018E-1,-5.098724365E-2
2.822075592E1,2.053910494E-2,9.914207458E-2,-4.580974579E-2
2.823680816E1,-3.212389350E-2,1.300129890E-1,6.947517395E-3
2.825279937E1,-9.404912591E-3,1.295636892E-1,1.407175064E-1
2.826879058E1,-3.862072527E-2,7.691347599E-2,8.045005798E-2
2.828475128E1,2.210254967E-2,5.236971378E-2,3.698635101E-2
2.830071197E1,8.392453194E-3,5.692279339E-2,-3.247547150E-2
2.831670318E1,3.040321171E-2,8.174729347E-2,-1.280231476E-1
2.833269439E1,1.701085269E-2,1.195328236E-1,-9.918975830E-2
2.834865508E1,2.398425341E-2,1.521173716E-1,-3.714752197E-2
2.836458526E1,-1.274037361E-2,1.478424072E-1,7.970905304E-2
2.838060699E1,-3.368557990E-2,1.007301807E-1,1.078815460E-1
2.839653716E1,-3.409010172E-2,5.172216892E-2,3.579902649E-2
2.841249786E1,-2.782261372E-2,3.841876984E-2,-3.107166290E-2
2.842848907E1,-1.719200611E-2,3.057360649E-2,-1.622257233E-1
2.844444976E1,1.236391068E-2,7.712745667E-2,-9.730815887E-2
2.846041046E1,-2.069292963E-2,1.002362967E-1,-5.203056335E-2
2.847637115E1,-2.186769247E-2,1.442288160E-1,4.081630707E-2
2.849236236E1,-6.605549157E-2,1.377171278E-1,1.121139526E-1
2.850832305E1,8.955463767E-3,1.096119881E-1,1.287431717E-1
2.852428375E1,1.092763245E-2,7.343554497E-2,1.186084747E-2
2.854027496E1,4.181501269E-2,8.428621292E-2,-1.375122070E-1
2.855623565E1,3.507778049E-3,8.668041229E-2,-1.542720795E-1
2.857219634E1,-4.477947950E-4,1.211557388E-1,-6.818580627E-2
2.858818756E1,-4.167538881E-2,1.495161057E-1,9.152317047E-2
2.860414825E1,-6.143686175E-2,1.183590889E-1,1.170578003E-1
2.862010894E1,8.693382144E-3,7.947838306E-2,6.884193420E-2
2.863606964E1,1.051169634E-2,1.051896811E-1,-1.633014679E-1
2.865203033E1,1.032173634E-2,8.572328091E-2,-4.389762878E-2
2.866799102E1,3.192290664E-3,3.633987904E-2,1.323347092E-1
2.868398223E1,7.042363286E-3,6.738853455E-2,1.698064804E-1
2.870000396E1,-3.591904044E-2,7.686662674E-2,5.246829987E-2
2.871596466E1,-2.512544394E-3,7.147610188E-2,2.681732178E-3
2.873189483E1,-6.627440453E-4,7.231807709E-2,-4.934883118E-2
2.874785552E1,2.369971573E-2,1.076308489E-1,-1.015186310E-1
2.876374620E1,-1.738810539E-2,1.482698917E-1,-7.274341583E-2
2.877970690E1,2.431325614E-2,1.188386679E-1,2.236557007E-2
2.879566759E1,-5.946566164E-2,1.366208792E-1,1.458654404E-1
2.881162828E1,-1.105090976E-2,1.503753662E-1,1.139822006E-1
2.882758898E1,-1.920863986E-2,1.212004423E-1,4.692363739E-2
2.884354967E1,4.082601517E-2,8.537232876E-2,-2.180948257E-1
2.885947985E1,4.929661751E-2,1.083914042E-1,-3.180837631E-1
2.887550157E1,1.175314188E-3,1.446794271E-1,-2.107677460E-1
2.889149278E1,-1.089842319E-1,1.272153854E-1,-3.022670746E-2
2.890745348E1,-5.172811449E-2,1.564326286E-1,2.143812180E-1
2.892341417E1,-5.826377869E-2,1.420489550E-1,1.885156631E-1
2.893943590E1,-3.750978410E-2,9.074449539E-2,1.891794205E-1
2.895539659E1,1.405878365E-2,1.170754433E-3,6.055736542E-2
2.897132677E1,4.079952836E-3,2.716636658E-2,1.520442963E-1
2.898731798E1,2.143546939E-2,3.097915649E-2,1.373958588E-2
2.900330919E1,1.404461265E-2,4.625117779E-2,-1.913547516E-2
2.901923937E1,-2.765017748E-2,3.171825409E-2,-1.072750092E-1
2.903526110E1,-3.317683935E-2,7.238125801E-2,-4.254436493E-2
2.905128282E1,7.594078779E-4,7.364130020E-2,2.878189087E-3
2.906724352E1,-2.176403254E-2,1.071809530E-1,7.962512970E-2
2.908320421E1,4.366233945E-2,7.560324669E-2,2.516269684E-2
2.909925646E1,4.291532934E-2,8.652532101E-2,-6.711196899E-2
2.911521715E1,2.074764669E-2,7.590878010E-2,-1.282281876E-1
2.913114733E1,3.597147763E-3,4.944574833E-2,-1.299591064E-1
2.914710802E1,-4.886788875E-2,6.991410255E-2,-4.363346100E-2
2.916306871E1,-3.082349151E-2,7.859075069E-2,-7.324218750E-4
2.917902941E1,-4.773173481E-2,8.153235912E-2,7.550716400E-2
2.919505113E1,-5.464998633E-2,6.353688240E-2,1.109781265E-1
2.921107286E1,-2.274359763E-2,9.464907646E-2,1.179265976E-1
2.922703356E1,5.517531186E-2,7.861804962E-2,2.017297745E-1
2.924299425E1,5.132185295E-2,6.383931637E-2,6.334400177E-2
2.925904650E1,1.367703080E-2,5.184614658E-2,-7.236194611E-2
2.927503771E1,2.805923298E-2,3.167414665E-2,-1.698894501E-1
2.929096788E1,2.210687846E-2,3.087675571E-2,2.674674988E-2
2.930692858E1,1.276326180E-2,7.388508320E-2,-7.594299316E-2
2.932288927E1,1.920181513E-2,6.279063225E-2,-9.491539001E-2
2.933888048E1,-1.628416032E-2,5.102241039E-2,4.154777527E-2
2.935484117E1,-3.379687667E-2,3.554224968E-3,-8.712768555E-3
2.937080187E1,-2.931833267E-2,1.577556133E-2,4.884815216E-2
2.938679308E1,-1.112264395E-2,3.927588463E-2,-2.034950256E-2
2.940275377E1,3.616597131E-2,5.318295956E-2,-2.246761322E-2
2.941871446E1,-6.242416799E-3,7.455468178E-2,1.371955872E-2
2.943470568E1,-4.570130259E-2,5.752778053E-2,8.584976196E-2
2.945066637E1,-4.508370906E-2,5.179321766E-2,9.581375122E-2
2.946665758E1,-4.734677076E-2,3.934550285E-2,8.207130432E-2
2.948261827E1,-1.066987962E-2,2.649044991E-2,2.530860901E-2
2.949864000E1,-1.651462913E-2,3.784036636E-2,-3.621673584E-2
2.951460070E1,-2.449282259E-2,8.425182104E-2,-1.026344299E-1
2.953056139E1,2.438272536E-2,7.775473595E-2,-4.950809479E-2
2.954652208E1,-4.244825244E-2,4.895496368E-2,1.309871674E-2
2.956251329E1,-5.647017062E-2,9.081888199E-2,8.282470703E-2
2.957850450E1,-6.429935992E-2,8.925896883E-2,1.669654846E-1
2.959446520E1,-1.043848693E-2,6.412684917E-2,1.220483780E-1
2.961045641E1,-3.716236353E-2,5.007094145E-2,5.565834045E-2
2.962644762E1,3.096320480E-2,2.846139669E-2,2.281761169E-2
2.964243883E1,6.210781634E-2,4.736334085E-2,-9.979248047E-3
2.965836900E1,2.443686128E-3,2.516078949E-2,-8.098220825E-2
2.967439073E1,-3.869654238E-2,2.666884661E-2,-5.609035492E-2
2.969041246E1,8.836656809E-3,-1.381641626E-2,-9.340858459E-2
2.970637316E1,-3.053794801E-2,-4.917502403E-3,4.788780212E-2
2.972233385E1,-5.516126752E-3,8.798718452E-3,4.945087433E-2
2.973835558E1,-1.739421487E-2,4.478198290E-2,7.656764984E-2
2.975431627E1,-9.199285507E-2,8.550500870E-2,6.077003479E-2
2.977027696E1,-7.258775830E-2,2.639830112E-2,8.347129822E-2
2.978623766E1,-4.023846984E-2,2.541261911E-2,2.017402649E-2
2.980219835E1,-2.271848917E-2,5.087530613E-2,4.773139954E-3
2.981812853E1,-3.375631571E-2,1.021363139E-1,4.686355591E-2
2.983415026E1,3.527183831E-2,5.610376596E-2,-1.924514771E-3
2.985014147E1,-1.722063124E-2,3.163915873E-2,-1.956081390E-2
2.986613268E1,3.890731186E-2,-2.060055733E-3,1.551532745E-2
2.988209337E1,-1.472473145E-3,2.029377222E-2,1.213455200E-2
2.989805406E1,-1.011544466E-2,2.012461424E-2,8.712768555E-3
2.991401476E1,-7.980880141E-2,4.655909538E-2,6.036758423E-2
2.992997545E1,-1.562514901E-2,6.793355942E-2,2.173824310E-1
2.994593614E1,-1.729893684E-2,5.098080635E-2,1.470880508E-1
2.996192736E1,6.605306268E-2,3.898546100E-2,1.008577347E-1
2.997794908E1,4.684418440E-2,2.137649059E-2,-7.587432861E-3
2.999394030E1,1.063921303E-2,2.286130190E-2,-5.136871338E-2
3.000987047E1,-1.460754126E-2,1.365354657E-2,-4.489040375E-2
3.002586168E1,-2.787803859E-2,4.322484136E-2,4.062843323E-2
3.004182238E1,6.363652647E-3,3.904411197E-2,-1.078605652E-3
3.005775255E1,-1.638039947E-2,3.730949759E-2,8.478832245E-2
3.007377428E1,1.018586010E-2,5.452549458E-2,4.588699341E-2
3.008979601E1,5.250766873E-3,3.798460960E-2,-9.106349945E-2
3.010575670E1,3.394886851E-2,4.282104969E-2,-6.520843506E-2
3.012174791E1,4.138377681E-2,2.006584406E-2,-9.922885895E-2
3.013770860E1,-2.600325644E-2,2.435803413E-2,-8.053874969E-2
3.015369982E1,-6.606429815E-3,1.105225086E-2,-3.306484222E-2
3.016969103E1,-8.335977793E-3,3.409886360E-2,6.476497650E-2
3.018565172E1,-1.960898936E-2,1.300877333E-2,4.535007477E-2
3.020164293E1,-5.913275480E-2,3.422501683E-2,1.001873016E-1
3.021766466E1,-1.746457815E-2,2.969215810E-2,1.190757751E-1
3.023362535E1,-1.030276716E-2,3.718881309E-2,5.897808075E-2
3.024958605E1,-3.520175815E-3,9.596726298E-2,1.088809967E-2
3.026554674E1,6.703428179E-2,9.679384530E-2,2.512359619E-2
3.028150743E1,1.203458011E-2,4.077798128E-2,-3.005886078E-2
3.029749864E1,-1.750227809E-2,3.443609178E-2,-3.839492798E-3
3.031345934E1,-4.158610106E-2,5.052669346E-2,7.976531982E-2
3.032942003E1,-2.452795208E-2,3.709274530E-2,1.249313354E-2
3.034541124E1,-6.598258018E-2,6.576095521E-2,2.656841278E-2
3.036137194E1,1.478403807E-2,5.216373503E-2,8.611297607E-2
3.037733263E1,-2.484394610E-2,4.672262818E-2,8.584022522E-2
3.039338488E1,2.067980170E-2,2.922119945E-2,7.846069336E-2
3.040937609E1,-2.072185278E-2,-2.150431275E-3,4.959678650E-2
3.042539781E1,2.702683210E-2,5.828199536E-2,-1.012954712E-1
3.044138903E1,1.856392622E-2,4.999912530E-2,-8.939361572E-2
3.045731920E1,-7.290646434E-3,5.588715523E-2,-6.314086914E-2
3.047334093E1,-3.916640580E-2,7.334075868E-2,8.041667938E-2
3.048933214E1,-3.350785375E-2,5.894749239E-2,8.516216278E-2
3.050532335E1,-4.417547584E-2,6.851831824E-2,1.090936661E-1
3.052131456E1,-1.977297664E-2,5.687156320E-2,8.035564423E-2
3.053724474E1,-2.706646919E-3,3.880210593E-2,6.134986877E-3
3.055326647E1,5.214548111E-2,5.195681006E-2,-8.963489532E-2
3.056922716E1,1.041203737E-2,6.851810217E-2,-9.921741486E-2
3.058521837E1,6.014153361E-3,4.736892879E-2,-3.693389893E-2
3.060120958E1,-6.847353280E-2,2.822856233E-2,-3.680706024E-2
3.061710924E1,-3.467322886E-2,3.421714902E-2,6.635284424E-2
3.063313097E1,-5.916868150E-2,5.563358963E-2,2.413005829E-1
3.064909166E1,1.083630323E-2,3.753382340E-2,1.671552658E-1
3.066508287E1,1.718989015E-2,1.956786215E-2,4.267215729E-2
3.068104357E1,3.276447952E-2,2.755960077E-2,-9.853649139E-2
3.069700426E1,2.758921683E-2,8.363887668E-2,-2.427005768E-2
3.071302599E1,-3.649935126E-3,1.111725271E-1,-5.775165558E-2
3.072901720E1,1.880098879E-2,1.247031465E-1,5.959033966E-2
3.074503893E1,3.755092621E-3,1.172175035E-1,3.811168671E-2
3.076103014E1,-6.060187519E-2,9.061749279E-2,3.110313416E-2
3.077696031E1,-5.090129375E-2,3.785003722E-2,1.464843750E-2
3.079298204E1,-1.698450744E-2,6.295897812E-2,9.159755707E-2
3.080900377E1,1.978170872E-2,3.506779671E-2,4.162216187E-2
3.082496446E1,-1.056413352E-2,5.152666569E-2,1.351594925E-1
3.084092516E1,-9.334310889E-3,4.021000862E-2,4.669380188E-2
3.085691637E1,-3.363926709E-2,4.178321362E-2,3.724098206E-2
3.087290758E1,-3.423279524E-2,2.107234299E-2,3.505325317E-2
3.088886827E1,-1.857060194E-2,3.564566374E-2,1.378917694E-2
3.090482897E1,2.092182636E-3,6.671796739E-2,-3.859043121E-2
3.092078966E1,-4.628658295E-3,1.089484245E-1,5.027008057E-2
3.093671984E1,-5.754143000E-2,5.553229153E-2,3.853130341E-2
3.095274156E1,-3.875537217E-2,5.201265216E-2,1.656112671E-1
3.096873278E1,-2.528209984E-2,3.988663852E-2,4.130935669E-2
3.098469347E1,-8.386805654E-3,5.598177016E-2,1.039600372E-2
3.100068468E1,1.173755527E-2,5.783532560E-2,-3.731727600E-3
3.101664537E1,2.766087651E-3,4.740771651E-2,2.522945404E-2
3.103260607E1,3.000199795E-3,4.603809118E-2,-2.243900299E-2
3.104856676E1,1.468826830E-2,2.593836188E-2,1.730918884E-3
3.106452745E1,-7.201984525E-3,6.082117558E-2,-3.910064697E-4
3.108051866E1,1.852898300E-2,3.901600838E-2,-5.750846863E-2
3.109654039E1,-1.837013662E-2,6.679677963E-2,3.627204895E-2
3.111247057E1,1.630067825E-2,2.451199293E-2,2.229785919E-2
3.112843126E1,1.962007582E-2,5.769962072E-2,5.617237091E-2
3.114442247E1,1.883675158E-2,8.730039001E-2,5.885505676E-2
3.116038317E1,9.015366435E-3,6.089550257E-2,4.218006134E-2
3.117634386E1,9.004279971E-3,6.225806475E-2,6.157016754E-2
3.119233507E1,-5.068841577E-2,4.879409075E-2,4.743099213E-2
3.120832628E1,7.859244943E-3,4.711598158E-2,1.074819565E-1
3.122431749E1,-2.363219857E-3,6.667679548E-2,5.975532532E-2
3.124024767E1,3.555791080E-2,4.702907801E-2,7.208824158E-3
3.125626940E1,-1.785537601E-2,2.616149187E-2,-3.088474274E-2
3.127223009E1,1.618295908E-3,4.176643491E-2,4.619121552E-2
3.128816027E1,-9.951084852E-3,3.870069981E-2,-2.784633636E-2
3.130415148E1,-4.873414338E-2,3.435987234E-2,3.962039948E-2
3.132011217E1,-1.774002612E-2,3.840595484E-2,1.138877869E-2
3.133604235E1,-4.250627756E-2,6.141021848E-2,4.300498962E-2
3.135206407E1,-3.254111111E-2,7.108590007E-2,1.032800674E-1
3.136805528E1,-2.787810564E-2,6.254497170E-2,1.251792908E-1
3.138401598E1,1.387403905E-2,8.072838187E-2,1.158819199E-1
3.140000719E1,-2.482807636E-2,5.717697740E-2,3.602027893E-3
3.141596788E1,2.636486292E-2,6.412434578E-2,1.110649109E-2
3.143195909E1,-3.080418706E-2,3.283962607E-2,6.638526917E-3
3.144795030E1,-5.320340395E-3,4.151865840E-2,3.567790985E-2
3.146391100E1,-3.558921814E-2,3.390979767E-2,9.704589844E-3
3.147990221E1,-2.774955332E-2,8.980631828E-3,2.692604065E-2
3.149592394E1,3.557471186E-2,2.986627817E-2,2.019882202E-2
3.151188463E1,-2.105771005E-2,4.266566038E-2,3.254413605E-2
3.152784532E1,-8.953587711E-2,3.038626909E-2,6.402587891E-2
3.154386705E1,2.156582475E-2,-2.471327782E-3,6.670284271E-2
3.155985826E1,1.020237803E-3,6.867748499E-2,5.511188507E-2
3.157578844E1,1.455380023E-2,8.390921354E-2,5.781650543E-2
3.159184068E1,-2.075155079E-2,6.581634283E-2,1.034774780E-1
3.160783190E1,3.668829799E-2,5.674338341E-2,4.122257233E-2
3.162385363E1,1.160719991E-2,4.597926140E-2,-5.702495575E-2
3.163981432E1,2.919668704E-2,6.214559078E-3,-6.892967224E-2
3.165577501E1,6.034195423E-3,1.335960627E-2,-4.470157623E-2
3.167176622E1,-1.869077981E-2,2.882593870E-2,9.702968597E-2
3.168775743E1,-3.383949399E-3,6.627309322E-2,1.837186813E-1
3.170368761E1,-5.408842862E-2,9.537184238E-2,1.768045425E-1
3.171970934E1,1.228579879E-2,7.671153545E-2,5.947685242E-2
3.173567003E1,1.872684807E-2,8.610832691E-2,9.000778198E-3
3.175166124E1,-4.175156355E-3,7.203686237E-2,-2.018013000E-1
3.176765245E1,-3.196224570E-2,1.198166907E-1,-3.884506226E-2
3.178358263E1,-3.652815521E-2,1.156460643E-1,1.386556625E-1
3.179957384E1,-3.556431830E-2,9.807366133E-2,1.125755310E-1
3.181559557E1,3.599257022E-2,4.972076416E-2,8.635330200E-2
3.183155626E1,1.133723557E-2,3.292733431E-2,3.845787048E-2
3.184748644E1,-4.535943270E-3,2.207756042E-4,-7.161426544E-2
3.186347765E1,-5.745683610E-2,2.134191990E-2,-4.980182648E-2
3.187943834E1,-4.310862720E-2,4.382598400E-2,7.038307190E-2
3.189542955E1,-5.390070379E-2,7.372587919E-2,1.402931213E-1
3.191139025E1,1.996226609E-3,8.590638638E-2,1.668977737E-1
