"Time (s)","Linear Acceleration x (m/s^2)","Linear Acceleration y (m/s^2)","Linear Acceleration z (m/s^2)"
3.424665200E-2,-1.285305619E-2,4.935562611E-3,4.972267151E-2
5.023786300E-2,1.599815488E-2,6.980717182E-3,3.051376343E-2
6.616803800E-2,4.813909531E-3,-9.026169777E-3,-2.259540558E-2
8.215924900E-2,-6.452172995E-3,4.574656487E-3,2.998065948E-2
9.815046000E-2,1.222616434E-2,5.797088146E-3,-2.237129211E-2
1.141111540E-1,-8.867412806E-3,-8.766949177E-3,-1.026153564E-3
1.301328820E-1,-9.792715311E-3,-5.671381950E-3,2.296066284E-2
1.460935750E-1,1.530230045E-3,1.132190228E-2,-1.788711548E-2
1.620542690E-1,-1.099494100E-2,5.583107471E-3,7.736110687E-2
1.780149620E-1,-2.109523118E-2,8.638203144E-3,-8.254051208E-2
1.939756550E-1,3.840899467E-2,-1.872003078E-3,4.458618164E-2
2.099058310E-1,-7.422268391E-3,3.006100655E-2,-5.548954010E-2
2.258360070E-1,9.086728096E-3,2.160513401E-2,9.479522705E-3
2.417967000E-1,-1.740336418E-3,1.435905695E-2,4.831027985E-2
2.577268760E-1,6.391167641E-3,7.736206055E-3,-3.247070312E-2
2.736875700E-1,4.881709814E-3,-2.693176270E-3,6.750488281E-2
2.896177450E-1,-1.304244995E-2,-8.834600449E-4,-6.358909607E-2
3.055784390E-1,-2.185985446E-2,2.208495140E-2,4.358196259E-2
3.215391320E-1,4.997909069E-3,4.658341408E-3,-4.319572449E-2
3.375303430E-1,1.089194417E-2,2.866470814E-2,-5.546569824E-3
3.535520720E-1,-4.665732384E-3,2.657383680E-2,3.687095642E-2
3.695432820E-1,8.916914463E-3,4.016751051E-2,-2.432823181E-3
3.855344930E-1,2.707540989E-3,4.574924707E-2,1.403236389E-2
4.014951870E-1,-1.496252418E-2,4.782211781E-2,-1.206569672E-1
4.174558800E-1,2.959865332E-2,5.784875154E-2,5.105209351E-2
4.334165730E-1,7.175356150E-3,1.209481955E-1,6.491279602E-2
4.494077840E-1,1.984888315E-2,9.061121941E-2,6.224060059E-2
4.653379600E-1,-1.618300378E-2,6.713533401E-2,-1.462860107E-1
4.812986540E-1,1.985302567E-2,7.996487617E-2,-8.210563660E-2
4.972593470E-1,1.009222865E-2,7.418179512E-2,5.986213684E-3
5.132200400E-1,-5.034609139E-2,8.760881424E-2,-2.198057175E-1
5.291502160E-1,2.904228866E-2,1.331255436E-1,2.653884888E-1
5.451109090E-1,-1.290142536E-2,9.956967831E-2,-6.056404114E-2
5.610716030E-1,-9.452447295E-3,6.666666269E-2,-1.898651123E-1
5.770017790E-1,4.183855653E-2,1.116719842E-1,-1.645030975E-1
5.929624720E-1,4.394629598E-2,1.372505426E-1,-3.839302063E-2
6.089536830E-1,5.979472399E-2,1.513160467E-1,4.000854492E-2
6.248838590E-1,5.459219217E-2,1.850212216E-1,1.499118805E-1
6.409055870E-1,4.379779100E-2,1.646993160E-1,4.714584351E-2
6.568662800E-1,-7.694989443E-3,1.558717489E-1,-6.983757019E-2
6.728880090E-1,1.187026501E-3,1.170223951E-1,-1.055126190E-1
6.888792200E-1,-3.215371072E-2,1.073748469E-1,-9.832859039E-2
7.048093960E-1,-1.266747713E-2,1.168353558E-1,-3.625869751E-2
7.208006070E-1,4.790991545E-3,1.347437501E-1,-1.020622253E-2
7.367307820E-1,-6.934314966E-3,1.741580367E-1,2.065372467E-2
7.527525110E-1,1.194119453E-2,1.652116776E-1,2.043914795E-2
7.686826870E-1,1.418766379E-2,1.680617332E-1,2.023410797E-2
7.847044150E-1,1.450124383E-2,1.666197181E-1,-1.061916351E-2
8.006345910E-1,1.254034042E-2,1.675391793E-1,-4.865264893E-2
8.166258020E-1,-4.637449980E-3,1.376043558E-1,-5.322742462E-2
8.326475300E-1,-5.597203970E-3,1.534298658E-1,-6.738376617E-2
8.486387410E-1,6.394565105E-3,1.363349557E-1,-6.724452972E-2
8.646299520E-1,7.599204779E-3,1.570026875E-1,2.401351929E-3
8.805906460E-1,1.339143515E-2,1.772999167E-1,-7.396411896E-2
8.965513390E-1,1.929840446E-2,1.716791391E-1,1.723098755E-2
9.125120320E-1,2.088212967E-2,1.556318402E-1,-1.590728760E-3
9.285337610E-1,2.438271046E-2,1.472041607E-1,-2.282619476E-2
9.444944540E-1,4.506805539E-2,1.237835288E-1,3.959083557E-2
9.604856650E-1,3.872424364E-3,1.273275018E-1,1.575660706E-2
9.764158410E-1,2.825963497E-2,1.215790510E-1,-3.439426422E-2
9.923154990E-1,4.542648792E-3,1.288074851E-1,-1.997375488E-2
1.008276193E0,-1.874116063E-2,1.295157075E-1,-2.716445923E-2
1.024206368E0,5.520701408E-3,1.405435205E-1,-5.670547485E-3
1.040167062E0,1.981180906E-2,1.288646460E-1,-2.496242523E-2
1.056127755E0,1.123893261E-2,1.400869489E-1,2.228736877E-2
1.072027413E0,-8.272916079E-3,1.416280866E-1,-3.821563721E-2
1.088018624E0,3.685295582E-3,1.196634769E-1,-7.720375061E-2
1.103948800E0,2.923327684E-2,1.271511316E-1,-3.720569611E-2
1.119970529E0,2.860501409E-2,1.451900005E-1,5.640029907E-3
1.135870187E0,-1.506844163E-2,1.791477799E-1,-3.525066376E-2
1.151861398E0,-1.831805706E-2,1.448229551E-1,-1.618766785E-2
1.167791573E0,-4.256798327E-2,1.509230733E-1,-1.627254486E-2
1.183813302E0,1.255986094E-2,1.104586124E-1,-4.519462585E-2
1.199773995E0,1.917332411E-2,1.363469362E-1,-2.392768860E-3
1.215734689E0,2.749827504E-2,1.151812077E-1,4.458427429E-3
1.231756417E0,4.679110646E-2,1.036912799E-1,-2.936649323E-2
1.247747628E0,2.463108301E-2,1.082054377E-1,-3.222656250E-2
1.263738839E0,1.578125358E-2,1.113270521E-1,-3.039932251E-2
1.279699532E0,1.837015152E-2,9.818905592E-2,-9.431838989E-3
1.295721261E0,-8.926481009E-3,1.110314131E-1,-5.064773560E-2
1.311712472E0,-3.742483258E-2,1.214820147E-1,-4.154396057E-2
1.327703683E0,2.782160044E-2,1.104122400E-1,1.280117035E-2
1.343694894E0,-1.130783558E-2,1.108980775E-1,-5.254650116E-2
1.359716622E0,4.415884614E-2,9.959656000E-2,-2.933979034E-2
1.375677316E0,2.800178528E-2,1.117613316E-1,-1.552391052E-2
1.391607491E0,3.922405839E-2,1.230691075E-1,-1.829338074E-2
1.407629220E0,3.234547377E-2,1.388800144E-1,-9.387016296E-3
1.423589913E0,-4.591584206E-3,1.361811161E-1,-1.694488525E-2
1.439520089E0,4.812061787E-3,1.353960633E-1,-5.301475525E-2
1.455511300E0,1.678115129E-2,1.192281246E-1,-1.733970642E-2
1.471533029E0,-1.079618931E-3,1.356946826E-1,-8.124351501E-3
1.487524239E0,1.810204983E-2,1.158396602E-1,2.749443054E-2
1.503454415E0,1.407843828E-2,9.413433075E-2,-2.312755585E-2
1.519415109E0,5.253314972E-3,1.048654318E-1,-3.790187836E-2
1.535375802E0,-1.085478067E-2,1.045390368E-1,-9.619712830E-3
1.551336495E0,4.802972078E-3,7.417309284E-2,-1.437005997E-1
1.567358224E0,2.622815967E-2,1.008392572E-1,4.923439026E-2
1.583318917E0,3.120601177E-4,9.220284224E-2,8.060455322E-3
1.599310128E0,2.391582727E-2,1.382388473E-1,5.248069763E-3
1.615270822E0,1.225465536E-2,1.094669104E-1,-2.148628235E-2
1.631292550E0,3.029516339E-2,9.316632152E-2,-5.066013336E-2
1.647283761E0,1.344972849E-2,8.048647642E-2,-4.400348663E-2
1.663213937E0,2.314898372E-2,8.958581090E-2,-2.059078217E-2
1.679205148E0,1.544284821E-2,1.167375445E-1,1.248168945E-2
1.695165841E0,2.011927962E-2,1.155994236E-1,3.853321075E-2
1.711187570E0,1.141190529E-2,8.491608500E-2,-6.950283051E-2
1.727178780E0,9.995669127E-3,9.366333485E-2,-5.556869507E-2
1.743169991E0,1.921579242E-2,1.100708246E-1,4.212570190E-2
1.759191720E0,6.849646568E-3,7.794395089E-2,-5.397129059E-2
1.775121896E0,1.152169704E-2,9.191176295E-2,-2.362785339E-1
1.791113107E0,5.371558666E-2,1.101090014E-1,7.203197479E-2
1.807104318E0,3.314647079E-2,9.343883395E-2,-5.753231049E-2
1.823095529E0,2.675059438E-2,7.832023501E-2,-9.605693817E-2
1.839086739E0,4.082420468E-2,1.277505755E-1,8.805656433E-2
1.855016915E0,1.968175173E-2,1.700702906E-1,1.213989258E-1
1.871008126E0,1.186433434E-2,2.173993587E-1,1.428880692E-1
1.886938302E0,2.959740162E-2,1.712993681E-1,1.094198227E-1
1.902898995E0,3.505489230E-2,1.519388258E-1,-1.203918457E-1
1.918859689E0,2.144744992E-2,1.037903130E-1,-1.755828857E-1
1.934820382E0,-8.825272322E-3,9.324932098E-2,-1.111707687E-1
1.950842111E0,-2.059811354E-2,7.963712513E-2,-3.957939148E-2
1.966833322E0,-1.303336024E-2,7.317890227E-2,2.244567871E-2
1.982794015E0,5.821257830E-3,1.081283242E-1,3.906345367E-2
1.998815743E0,-3.998667002E-3,1.251319796E-1,-4.005336761E-2
2.014715402E0,2.193707228E-2,1.474380344E-1,-2.329635620E-2
2.030706613E0,3.633379936E-2,1.315966547E-1,-4.160881042E-3
2.046636788E0,3.897020221E-2,1.345322728E-1,-3.769779205E-2
2.062658517E0,2.296525240E-2,1.700400412E-1,1.256465912E-2
2.078649728E0,9.552657604E-3,1.604684591E-1,3.001213074E-3
2.094610421E0,2.195724845E-2,1.542101353E-1,8.207416534E-2
2.110571114E0,1.531508565E-2,1.216883361E-1,-1.119852066E-1
2.126501290E0,-2.246588469E-3,1.114589125E-1,-2.582130432E-1
2.142523019E0,4.133164883E-3,1.298023313E-1,-5.725574493E-2
2.158514230E0,2.541998029E-2,1.597675234E-1,1.941127777E-1
2.174474923E0,4.588890076E-2,1.774770468E-1,4.816150665E-2
2.190374581E0,1.599508524E-2,1.626829505E-1,2.194690704E-2
2.206365792E0,6.052219868E-2,1.778817773E-1,-5.217742920E-2
2.222326486E0,3.482326865E-2,1.209316552E-1,6.513881683E-2
2.238287179E0,1.374775171E-2,1.331701428E-1,-6.187725067E-2
2.254278390E0,2.132278681E-2,1.175458878E-1,-9.315586090E-2
2.270300118E0,3.356954455E-2,1.261142790E-1,-7.645797729E-2
2.286291329E0,1.121485233E-2,1.309283972E-1,-3.097534180E-2
2.302221505E0,1.350814104E-2,1.127910316E-1,-1.890182495E-2
2.318243234E0,8.088111877E-3,1.178835481E-1,-2.832984924E-2
2.334142892E0,1.111856103E-2,1.112149134E-1,-2.822017670E-2
2.350134103E0,4.691660404E-2,1.156425178E-1,4.846096039E-2
2.366064279E0,1.399558783E-2,1.491294503E-1,2.936840057E-2
2.382086007E0,-1.934498549E-3,1.505512446E-1,-2.085399628E-2
2.398046700E0,1.003211737E-2,1.578798592E-1,-4.710388184E-2
2.414068429E0,1.553559303E-2,1.599275768E-1,-4.214000702E-2
2.430059640E0,1.125806570E-2,1.640913039E-1,4.184722900E-2
2.445959298E0,2.481043339E-4,1.448726207E-1,-1.544380188E-2
2.461981027E0,2.845883369E-3,1.172527522E-1,4.032135010E-3
2.477972238E0,-1.543760300E-5,1.025987938E-1,-5.773258209E-2
2.493932931E0,1.215496659E-2,1.200868264E-1,-5.246829987E-2
2.509954659E0,5.038538575E-2,1.400993317E-1,4.787445068E-4
2.525915353E0,3.857752681E-2,1.297141314E-1,5.420684814E-3
2.541937081E0,5.137121677E-2,1.398832202E-1,-4.712390900E-2
2.557928292E0,3.747540712E-2,1.219022721E-1,-4.696464539E-2
2.573888986E0,1.206088066E-2,1.288977861E-1,-2.525901794E-2
2.589880197E0,5.080610514E-2,9.068854153E-2,1.803588867E-2
2.605779855E0,2.622526884E-2,1.271654665E-1,1.345062256E-2
2.621801583E0,1.434749365E-2,1.438539028E-1,-2.708625793E-2
2.637792794E0,2.929466963E-2,1.479547918E-1,-8.201694489E-2
2.653753488E0,3.447473049E-3,1.358307004E-1,-2.680397034E-2
2.669744698E0,2.750951052E-2,1.456218064E-1,4.280281067E-2
2.685674874E0,3.470742702E-2,1.350532770E-1,3.578853607E-2
2.701696603E0,1.140993834E-2,1.079095751E-1,-8.378314972E-2
2.717687814E0,-1.877784729E-3,8.328400552E-2,-2.617263794E-2
2.733648507E0,4.353421926E-2,1.070830300E-1,3.856754303E-2
2.749639718E0,-5.872726440E-3,1.200499088E-1,2.937316895E-4
2.765600411E0,-3.802180290E-4,1.248932183E-1,1.242256165E-2
2.781591622E0,2.239048481E-3,1.102529317E-1,-5.423259735E-2
2.797613351E0,2.273911238E-2,1.207688004E-1,-3.472709656E-2
2.813574044E0,-1.902121305E-2,1.028901413E-1,1.115617752E-1
2.829565255E0,6.183445454E-3,8.986836672E-2,2.798080444E-2
2.845525948E0,1.661986113E-2,1.045627818E-1,-1.944551468E-1
2.861517159E0,9.272813797E-3,1.092438549E-1,-1.008377075E-1
2.877508370E0,4.457473755E-2,1.006968692E-1,1.055021286E-1
2.893499581E0,1.692008972E-2,1.026957035E-1,-1.094369888E-1
2.909460275E0,2.953571081E-2,1.277466863E-1,3.569602966E-3
2.925390450E0,5.114167929E-2,1.830634326E-1,1.978693008E-1
2.941412179E0,4.884082079E-2,2.081981152E-1,3.055477142E-2
2.957403390E0,5.866014957E-2,2.048145682E-1,2.133178711E-2
2.973364083E0,2.528369427E-2,1.712398231E-1,-4.298782349E-2
2.989355294E0,3.360331059E-3,1.286652982E-1,-7.148265839E-2
3.005285470E0,-2.136629820E-2,1.034233868E-1,-7.353782654E-2
3.021307198E0,-1.067912579E-2,8.229306340E-2,-4.691219330E-2
3.037298409E0,3.334283829E-4,1.347461492E-1,-2.264881134E-2
3.053259103E0,2.379518747E-2,1.120875031E-1,5.423641205E-2
3.069219796E0,9.600758553E-3,1.136659831E-1,2.807521820E-2
3.085211007E0,1.857513189E-2,1.098020524E-1,-6.037998199E-2
3.101202218E0,2.163088322E-2,1.115721613E-1,-7.698917389E-2
3.117223947E0,1.804226637E-2,1.503287405E-1,-5.049705505E-2
3.133184640E0,3.672534227E-2,1.806680858E-1,7.168865204E-2
3.149175851E0,1.682233810E-2,2.029806376E-1,-2.647209167E-2
3.165075509E0,2.550631762E-2,1.986743510E-1,6.914234161E-2
3.181097238E0,4.193341732E-2,1.583126932E-1,5.241298676E-2
3.197057931E0,-6.206631660E-3,1.366035640E-1,-1.967144012E-1
3.213079659E0,9.800016880E-3,1.414889693E-1,-1.727190018E-1
3.229009835E0,2.984762192E-2,1.483136714E-1,2.248802185E-1
3.245031564E0,3.960829973E-2,1.640367508E-1,6.928825378E-2
3.260992257E0,4.446816444E-2,1.689387113E-1,-1.676273346E-2
3.276983468E0,4.130464792E-2,1.993184090E-1,-4.046821594E-2
3.292944161E0,1.651823521E-2,1.752596945E-1,-4.259872437E-2
3.308965890E0,-3.394722939E-3,1.354077458E-1,-1.070928574E-1
3.324957101E0,3.872334957E-3,1.444716752E-1,-5.668067932E-2
3.340948312E0,1.626914740E-2,1.372817755E-1,7.737064362E-2
3.356939523E0,5.544126034E-3,1.344727278E-1,1.034784317E-1
3.372900216E0,-1.197689772E-2,1.475370675E-1,-2.616405487E-2
3.388891427E0,3.892779350E-4,1.654968560E-1,-7.432556152E-2
3.404821603E0,2.546072006E-3,1.919817328E-1,-3.142738342E-2
3.420843331E0,9.625971317E-3,1.943940818E-1,-4.600048065E-2
3.436773507E0,2.474683523E-2,2.097038031E-1,-4.623794556E-2
3.452795236E0,4.122555256E-3,1.956108510E-1,-3.925514221E-2
3.468755929E0,-9.026527405E-3,1.757339537E-1,-1.062107086E-2
3.484747140E0,5.245029926E-3,1.756979823E-1,1.544284821E-2
3.500707833E0,2.068388462E-2,1.456533074E-1,7.894515991E-3
3.516729562E0,1.206886768E-2,1.473373175E-1,-1.385784149E-2
3.532690255E0,7.428526878E-3,1.614362299E-1,-2.391433716E-2
3.548711984E0,1.935660839E-3,1.542592794E-1,-1.475238800E-2
3.564703195E0,1.538038254E-3,1.756704301E-1,-3.912448883E-2
3.580663888E0,2.136015892E-2,1.846224070E-1,5.948066711E-3
3.596655099E0,1.372933388E-2,1.811798364E-1,-4.034042358E-3
3.612615792E0,2.464997768E-2,1.895684451E-1,-2.833366394E-2
3.628607003E0,2.051073313E-2,1.865700632E-1,-1.425838470E-2
3.644567697E0,7.595598698E-3,1.528815776E-1,3.570938110E-2
3.660589425E0,1.319468021E-3,1.716095954E-1,-2.998352051E-3
3.676580636E0,-1.399910450E-2,1.497243643E-1,-9.678363800E-2
3.692541329E0,5.866050720E-3,1.647100598E-1,-5.163478851E-2
3.708532540E0,1.178634167E-2,1.770876497E-1,-6.395912170E-2
3.724493234E0,1.332616806E-2,1.856686771E-1,5.776882172E-2
3.740514962E0,2.314704657E-2,1.867232323E-1,1.484308243E-1
3.756506173E0,-1.662433147E-3,1.554121524E-1,-2.657032013E-2
3.772466866E0,-2.468609810E-2,1.587165743E-1,-1.296815872E-1
3.788458077E0,-8.955657482E-3,2.074468285E-1,1.381969452E-2
3.804449288E0,-2.411615849E-2,1.718550473E-1,-4.858207703E-2
3.820440499E0,-4.860043526E-3,1.984022260E-1,-2.019872665E-1
3.836370675E0,3.736907244E-2,2.309913784E-1,2.263383865E-1
3.852392404E0,1.265555620E-2,1.599420607E-1,-1.079940796E-2
3.868322579E0,1.333618164E-2,1.603415757E-1,-2.957715988E-1
3.884283273E0,2.869629860E-2,1.899526268E-1,-5.401515961E-2
3.900243966E0,1.417863369E-2,2.540700436E-1,7.036781311E-2
3.916204659E0,2.405244112E-2,2.543843687E-1,1.731872559E-1
3.932226388E0,1.600709558E-2,2.797087431E-1,1.468029022E-1
3.948187081E0,3.950890899E-2,2.576310933E-1,1.988506317E-2
3.964178292E0,2.316987514E-2,2.205955982E-1,-8.069801331E-2
3.980108468E0,-1.154470444E-2,1.863370240E-1,-5.201339722E-2
3.996069161E0,-3.006958961E-2,1.929805875E-1,-5.202484131E-2
4.011999337E0,-5.172693729E-2,1.986310482E-1,-2.805042267E-2
4.027990548E0,-2.481508255E-2,2.002386302E-1,-1.846504211E-2
4.043981759E0,5.109906197E-4,1.979900151E-1,-1.370334625E-2
4.059972970E0,-2.065202594E-2,2.044314295E-1,-2.577590942E-2
4.075964181E0,-1.023837924E-2,2.400347292E-1,-2.828598022E-2
4.091924874E0,-4.779100418E-4,2.348042279E-1,-9.202957153E-3
4.107916085E0,-2.074834704E-2,2.344657183E-1,-2.108383179E-2
4.123876779E0,-7.224619389E-3,2.416866273E-1,-4.134178162E-3
4.139867989E0,2.715736628E-3,2.411246449E-1,-3.837585449E-3
4.155859200E0,6.580621004E-3,2.196654081E-1,6.597614288E-2
4.171819894E0,-1.037698984E-2,1.891566217E-1,-6.772804260E-2
4.187811105E0,-1.520246267E-3,1.843673885E-1,-1.417446136E-1
4.203771798E0,-5.426436663E-3,1.971903145E-1,-7.950401306E-2
4.219763009E0,3.201034665E-2,2.231222689E-1,-5.319118500E-2
4.235754220E0,-1.897871494E-3,2.314420640E-1,9.148597717E-3
4.251714913E0,3.002870083E-2,2.109755278E-1,7.161998749E-2
4.267675607E0,2.809056640E-2,2.072826922E-1,5.039310455E-2
4.283666818E0,2.083986998E-3,1.989098787E-1,-6.574630737E-3
4.299627511E0,-2.757146955E-2,1.869780719E-1,-6.625175476E-2
4.315588204E0,-1.243168116E-2,1.879495382E-1,-7.317161560E-2
4.331609933E0,2.725809813E-3,2.166287601E-1,-6.337261200E-2
4.347540109E0,-1.062542200E-2,2.165192068E-1,-1.526832581E-2
4.363531320E0,9.510427713E-3,2.154068351E-1,-1.500511169E-2
4.379461495E0,1.009103656E-2,1.839285791E-1,-5.286788940E-2
4.395452706E0,1.563149691E-2,1.816650033E-1,-3.079128265E-2
4.411413400E0,-1.559853554E-4,1.880266368E-1,-1.115798950E-2
4.427435128E0,-4.481470585E-2,1.949421465E-1,-4.180526733E-2
4.443426339E0,-2.498260140E-2,1.837464273E-1,-3.042221069E-3
4.459417550E0,-9.503275156E-3,2.035062611E-1,9.386062622E-3
4.475408761E0,-3.397166729E-3,1.842422187E-1,-2.090454102E-3
4.491430489E0,1.267787814E-2,1.741406024E-1,-3.270244598E-2
4.507391183E0,1.441532373E-2,1.745495200E-1,-3.940296173E-2
4.523382394E0,-5.389183760E-3,1.735615432E-1,-2.937984467E-2
4.539312570E0,3.291487694E-3,1.853560805E-1,-4.810619354E-2
4.555334298E0,-1.433193684E-4,1.571127176E-1,-3.572559357E-2
4.571294991E0,1.248508692E-2,1.699522734E-1,-6.163692474E-2
4.587316720E0,4.968225956E-3,1.660714746E-1,-2.046012878E-2
4.603307931E0,7.601052523E-3,1.763724089E-1,-2.956962585E-2
4.619268624E0,2.213811874E-2,1.815686822E-1,-2.189159393E-2
4.635229318E0,2.472230792E-2,1.699669957E-1,1.630783081E-4
4.651190011E0,1.549142599E-2,1.541742086E-1,-1.612281799E-2
4.667211739E0,9.333848953E-3,1.699090600E-1,-3.963470459E-2
4.683202950E0,-2.064317465E-3,1.594178081E-1,-1.524353027E-2
4.699194161E0,-9.459733963E-3,1.579881907E-1,-4.106044769E-2
4.715154855E0,3.096640110E-3,1.586707830E-1,-2.393531799E-2
4.731085030E0,8.132278919E-3,1.381589174E-1,-4.482650757E-2
4.747076241E0,-1.321923733E-2,1.419879794E-1,8.621215820E-4
4.763036935E0,1.875132322E-3,1.404227614E-1,-1.074504852E-2
4.779028146E0,1.935091615E-2,1.532405019E-1,-3.431797028E-2
4.795019357E0,-1.244634390E-3,1.498493552E-1,-3.638458252E-2
4.810980050E0,-3.429025412E-3,1.538349986E-1,-4.910469055E-3
4.826940743E0,6.306469440E-3,1.385623217E-1,-2.370262146E-2
4.842901437E0,-1.990064979E-2,1.451069713E-1,-5.447959900E-2
4.858892648E0,-2.187451720E-2,1.400675178E-1,-3.979969025E-2
4.874883859E0,-1.305639744E-4,1.542584896E-1,2.037620544E-2
4.890814034E0,2.628296614E-3,1.654975414E-1,-3.212928772E-3
4.906805245E0,1.009145379E-2,1.453027725E-1,-1.959133148E-2
4.922796456E0,1.759293675E-2,1.589415073E-1,-2.401828766E-2
4.938787667E0,8.488118649E-3,1.629243493E-1,-9.288787842E-3
4.954778878E0,-2.922832966E-3,1.531131864E-1,-3.530120850E-2
4.970709054E0,1.613256335E-2,1.647667885E-1,-3.733634949E-2
4.986700265E0,1.757705212E-2,1.645108461E-1,3.758430481E-3
5.002691476E0,-6.587117910E-3,1.620436311E-1,-2.222537994E-2
5.018682687E0,-1.134836674E-2,1.475238204E-1,-2.721786499E-3
5.034673898E0,5.755454302E-3,1.311034560E-1,-4.811286926E-3
5.050634591E0,-1.020690799E-2,1.177407503E-1,-6.682014465E-2
5.066656320E0,-2.137273550E-3,1.298409104E-1,-1.050004959E-1
5.082647530E0,-5.553603172E-3,1.503013968E-1,-5.230522156E-2
5.098638741E0,9.335666895E-3,1.514713764E-1,6.029033661E-2
5.114599435E0,4.979759455E-3,1.646386385E-1,2.462100983E-2
5.130529611E0,4.848569632E-3,1.479361057E-1,-2.051734924E-2
5.146520822E0,1.245212555E-2,1.561164856E-1,-1.184167862E-1
5.162512032E0,-1.352727413E-3,1.493049264E-1,1.420021057E-3
5.178503243E0,3.270477057E-3,1.207436323E-1,-3.432083130E-2
5.194494454E0,1.684942842E-2,1.420095563E-1,-3.436565399E-2
5.210455148E0,3.551989794E-2,1.759349704E-1,1.497020721E-1
5.226446359E0,7.423460484E-3,1.223353744E-1,-1.877403259E-1
5.242376534E0,1.481258869E-2,1.274142861E-1,-2.357339859E-1
5.258398263E0,2.524057031E-2,1.584709883E-1,-6.381130219E-2
5.274389474E0,2.516242862E-2,1.601269245E-1,3.398323059E-2
5.290350167E0,2.869144082E-2,1.572014689E-1,8.889389038E-2
5.306341378E0,2.273774147E-2,2.087875605E-1,9.134197235E-2
5.322332589E0,8.084297180E-3,1.792731285E-1,-1.605415344E-2
5.338323800E0,-9.737998247E-3,1.794164181E-1,-9.946918488E-2
5.354345529E0,-3.386780620E-2,1.493920088E-1,-7.046127319E-2
5.370306222E0,6.598591805E-3,1.306250095E-1,-6.551647186E-2
5.386297433E0,1.198205352E-2,1.545683146E-1,-5.836009979E-2
5.402258126E0,8.184850216E-3,1.429503560E-1,-2.934455872E-2
5.418249337E0,2.802047133E-2,1.613119245E-1,3.036403656E-2
5.434240548E0,1.622888446E-2,1.618275046E-1,-2.696609497E-2
5.450201241E0,-1.029428840E-2,1.575106978E-1,-1.945686340E-2
5.466192452E0,-1.463669538E-2,1.654677391E-1,-1.678180695E-2
5.482153146E0,-1.364409924E-2,1.689397693E-1,-4.574775696E-3
5.498144357E0,-9.575277567E-3,1.790013313E-1,-1.629161835E-2
5.514135568E0,1.742351055E-2,1.643890738E-1,-8.537006378E-2
5.530126779E0,3.949725628E-2,1.531131864E-1,-3.719615936E-2
5.546087472E0,3.584933281E-2,1.448541284E-1,-1.303482056E-2
5.562048165E0,3.174617887E-2,1.411569715E-1,-6.784534454E-2
5.578069894E0,2.047640085E-2,1.477837563E-1,4.179954529E-3
5.594061105E0,1.814723015E-3,1.426469684E-1,-4.351139069E-2
5.610052316E0,-7.966816425E-3,1.405860782E-1,-9.823799133E-3
5.626074044E0,1.544311643E-2,1.428055763E-1,4.764556885E-3
5.642065255E0,7.254391909E-3,1.426422596E-1,-1.175308228E-2
5.658056466E0,2.305868268E-2,1.350811124E-1,-9.099960327E-3
5.674017159E0,4.327574372E-2,1.118096113E-1,-8.908271790E-3
5.689977853E0,2.273726463E-2,1.227088571E-1,-2.552604675E-2
5.705969064E0,-2.194136381E-3,1.387552619E-1,-4.697513580E-2
5.721929757E0,1.556363702E-2,1.385123134E-1,-4.450321198E-2
5.737920968E0,3.816315532E-2,1.378211975E-1,-2.284336090E-2
5.753912179E0,-3.401637077E-3,1.248810291E-1,-2.751827240E-2
5.769903390E0,-8.447915316E-3,1.311557889E-1,-2.982997894E-2
5.785894601E0,4.094243050E-3,1.278353930E-1,-3.217411041E-2
5.801885812E0,-1.481258869E-2,1.438682079E-1,-2.254962921E-2
5.817877023E0,-9.692758322E-3,1.379994154E-1,-2.487277985E-2
5.833868234E0,-1.159113646E-2,1.438021064E-1,-5.111885071E-2
5.849798409E0,-4.231482744E-3,1.378072500E-1,-5.821323395E-2
5.865789620E0,1.200339198E-2,1.272090673E-1,-2.219581604E-2
5.881719796E0,9.479045868E-3,1.528874040E-1,-2.984046936E-3
5.897741525E0,2.378901839E-2,1.444317698E-1,-7.667541504E-3
5.913732736E0,5.300939083E-3,1.335775852E-1,-3.153514862E-2
5.929723947E0,-5.275875330E-3,1.113228798E-1,-2.914428711E-2
5.945745675E0,9.136795998E-4,1.112980247E-1,-4.356575012E-2
5.961706368E0,-6.008595228E-3,1.281663179E-1,-7.672309875E-3
5.977697579E0,-1.336038113E-3,1.328769326E-1,-5.075645447E-2
5.993719308E0,1.264125109E-2,1.232812405E-1,-2.679634094E-2
6.009649484E0,2.869993448E-2,1.235682368E-1,-1.960849762E-2
6.025640695E0,2.131721377E-2,1.404498816E-1,-5.312919617E-2
6.041570870E0,6.019443274E-3,1.332770586E-1,-4.840278625E-2
6.057592599E0,-6.669372320E-3,1.333168745E-1,-3.650474548E-2
6.073583810E0,-6.483733654E-3,1.405951977E-1,-6.074905396E-4
6.089544503E0,1.902097464E-2,1.353523135E-1,1.861763000E-2
6.105535714E0,1.671323180E-2,1.389575005E-1,6.738662720E-3
6.121465890E0,1.322716475E-2,1.324899793E-1,-7.458305359E-2
6.137487618E0,2.450194955E-2,1.137284636E-1,-1.703071594E-2
6.153448312E0,1.327249408E-2,1.150670052E-1,-7.683181763E-2
6.169470040E0,4.415965080E-2,1.128782630E-1,-3.613662720E-2
6.185430734E0,6.022751331E-4,1.279394031E-1,1.171016693E-2
6.201421945E0,2.138847113E-2,1.355739236E-1,-3.139019012E-2
6.217382638E0,-1.924052835E-2,1.424314380E-1,-2.431869507E-4
6.233373849E0,-1.116934419E-2,1.298049688E-1,6.956100464E-3
6.249334542E0,1.630574465E-3,1.457797289E-1,2.197265625E-3
6.265356271E0,5.367457867E-3,1.280564070E-1,-5.045223236E-2
6.281347482E0,-4.114806652E-4,1.090598106E-1,-6.488895416E-2
6.297308175E0,1.071330905E-2,1.198223829E-1,-5.547142029E-2
6.313268868E0,1.203840971E-2,1.615763903E-1,2.818489075E-2
6.329229562E0,3.585904837E-3,1.512442827E-1,5.214309692E-2
6.345190255E0,2.039974928E-2,1.127947569E-1,-4.581546783E-2
6.361120431E0,-1.067212224E-2,9.380984306E-2,-1.392059326E-1
6.377050607E0,2.070212364E-2,1.266167760E-1,-3.161334991E-2
6.393041818E0,-7.877945900E-4,1.205849051E-1,-3.889179230E-2
6.409002511E0,-9.055882692E-3,1.292154193E-1,-1.372241974E-1
6.425024239E0,2.430099249E-2,1.733152270E-1,1.570911407E-1
6.441015450E0,1.545697451E-2,1.181187630E-1,-1.980876923E-2
6.456976144E0,8.126407862E-3,8.984595537E-2,-1.947126389E-1
6.472967355E0,1.686033607E-2,1.073973775E-1,-1.689825058E-1
6.488897530E0,2.365130186E-2,1.434952617E-1,3.865146637E-2
6.504858224E0,6.338089705E-3,1.392078996E-1,3.098773956E-2
6.520788400E0,-1.064082980E-2,1.758369803E-1,5.700397491E-2
6.536810128E0,3.182438016E-2,2.078007460E-1,4.030704498E-2
6.552801339E0,2.554985881E-2,1.738042831E-1,-4.320430756E-2
6.568762032E0,-3.982159495E-2,1.301951408E-1,-6.688976288E-2
6.584722726E0,-4.822558165E-2,1.026035547E-1,-7.871055603E-2
6.600683419E0,-1.716628671E-2,1.181505322E-1,-8.837795258E-2
6.616705148E0,1.048624516E-2,1.308174133E-1,-2.163696289E-2
6.632696359E0,2.498173714E-2,1.746568084E-1,6.844520569E-3
6.648657052E0,1.870974898E-2,1.700606942E-1,4.251956940E-2
6.664648263E0,1.182386279E-2,1.830615997E-1,6.699562073E-3
6.680578439E0,-3.530246019E-2,1.621671915E-1,-6.004905701E-2
6.696600167E0,-2.942666411E-2,1.609393358E-1,-3.347587585E-2
6.712560861E0,-3.654956818E-3,1.504032016E-1,-5.004978180E-2
6.728552072E0,3.631347418E-2,1.538257599E-1,-4.264068604E-2
6.744573800E0,4.612156749E-2,1.691372395E-1,-3.995323181E-2
6.760534493E0,2.966481447E-2,1.467815042E-1,-3.013420105E-2
6.776525704E0,1.797640324E-2,1.508275270E-1,-3.468418121E-2
6.792516915E0,9.286761284E-3,1.457965374E-1,-4.648017883E-2
6.808477609E0,1.023364067E-2,1.342661381E-1,-1.045036316E-2
6.824468820E0,-3.389179707E-3,1.440968513E-1,-5.579853058E-2
6.840398995E0,-2.461612225E-3,1.307256818E-1,-3.178119659E-2
6.856420724E0,2.623575926E-2,1.272543073E-1,-2.211666107E-2
6.872381417E0,3.213533759E-2,1.285659671E-1,9.148597717E-3
6.888403146E0,2.330613136E-2,1.203274727E-1,-3.379249573E-2
6.904424874E0,2.880579233E-2,1.241645217E-1,-2.885723114E-2
6.920324532E0,1.271933317E-3,1.383360624E-1,-2.160930634E-2
6.936315743E0,-1.637598872E-2,1.334887743E-1,-4.790401459E-2
6.952245919E0,-7.691979408E-3,1.361677051E-1,-7.186889648E-3
6.968267648E0,-3.131151199E-3,1.269038916E-1,-4.810333252E-3
6.984197823E0,-2.489864826E-3,1.249775290E-1,-2.163410187E-2
7.000219552E0,8.638888597E-3,1.400970817E-1,-9.788513184E-3
7.016149728E0,2.016007900E-3,1.240172982E-1,-4.539108276E-2
7.032140939E0,-2.377650142E-2,1.218628287E-1,-9.909629822E-3
7.048101632E0,1.796722412E-3,1.393370032E-1,-1.472377777E-2
7.064123361E0,8.264958858E-3,1.497309208E-1,-1.236534119E-2
7.080114572E0,1.963084936E-2,1.343795657E-1,-5.270957947E-3
7.096044747E0,-7.156729698E-3,1.342713833E-1,4.139900208E-3
7.112066476E0,1.200908422E-2,1.440577507E-1,2.547836304E-2
7.128027169E0,5.124330521E-3,1.206470728E-1,-7.532405853E-2
7.144048898E0,-8.798629045E-3,1.195995808E-1,1.533985138E-2
7.160040109E0,-5.696326494E-3,1.169617176E-1,-9.039497375E-2
7.176000802E0,4.711732268E-2,1.168847680E-1,4.996299744E-3
7.191961495E0,3.484311700E-2,1.194364429E-1,-6.002140045E-2
7.207922189E0,4.655876756E-2,1.197911501E-1,-7.738113403E-3
7.223913400E0,4.863521457E-2,1.275641322E-1,-4.405212402E-2
7.239904611E0,2.135297656E-2,1.450876594E-1,-3.964996338E-2
7.255895822E0,3.340095282E-3,1.105960608E-1,-3.049278259E-2
7.271887032E0,-1.123645902E-2,1.340385079E-1,-9.439468384E-3
7.287847726E0,-1.371777058E-2,1.098259091E-1,-9.951591492E-3
7.303838937E0,7.792174816E-3,1.025568247E-1,-2.962875366E-2
7.319799630E0,2.140274644E-2,1.146504283E-1,-2.773666382E-2
7.335790841E0,1.583814621E-3,1.192544699E-1,-4.497528076E-2
7.351812570E0,2.247244120E-2,1.045471430E-1,-2.867794037E-2
7.367742745E0,1.952832937E-2,9.972661734E-2,-3.395080566E-2
7.383764474E0,3.009507060E-2,1.073923111E-1,-2.006530762E-2
7.399755685E0,9.330660105E-3,1.218944192E-1,-8.533477783E-3
7.415716378E0,3.041863441E-3,1.054196954E-1,-2.574253082E-2
7.431677072E0,-1.017636061E-2,9.580594301E-2,-3.814601898E-2
7.447637765E0,1.011818647E-3,8.909457922E-2,-1.468467712E-2
7.463598458E0,-4.624366760E-3,1.037091017E-1,-1.753520966E-2
7.479528634E0,3.046780825E-3,9.014934301E-2,-5.159950256E-2
7.495489327E0,1.540723443E-2,9.695851803E-2,-2.826976776E-2
7.511450021E0,2.367687225E-2,1.065815091E-1,-4.808425903E-2
7.527441232E0,1.488870382E-2,1.233603954E-1,2.071094513E-2
7.543462960E0,8.784860373E-3,1.166573763E-1,1.139640808E-3
7.559454171E0,5.571544170E-4,8.769440651E-2,-7.829093933E-2
7.575384347E0,-1.180824637E-2,7.693123817E-2,-6.938171387E-2
7.591375558E0,-1.144853234E-2,7.709062099E-2,3.520202637E-2
7.607305734E0,-1.612365246E-3,9.320950508E-2,1.130104065E-3
7.623327462E0,2.789604664E-2,1.053420901E-1,-1.956701279E-1
7.639318673E0,4.162269831E-2,1.065133214E-1,4.532241821E-2
7.655309884E0,6.225699186E-2,8.189111948E-2,-2.217292786E-2
7.671270577E0,3.522196412E-2,9.240412712E-2,-1.875505447E-1
7.687200753E0,4.744356871E-2,1.103218794E-1,1.122474670E-3
7.703191964E0,3.952467442E-2,1.520770490E-1,1.251144409E-1
7.719122140E0,1.652157307E-2,1.740279794E-1,7.931423187E-2
7.735082833E0,1.940953732E-2,1.767413914E-1,8.154964447E-2
7.751043527E0,1.829960942E-2,1.605298221E-1,-2.148914337E-2
7.767034738E0,-1.394629478E-3,1.562488675E-1,-2.298936844E-1
7.783056466E0,-6.895661354E-4,8.659371734E-2,-5.056381226E-2
7.799047677E0,-2.730664611E-2,9.069389105E-2,-7.967281342E-2
7.815008370E0,-2.666324377E-2,9.802997112E-2,-1.547527313E-2
7.830969064E0,1.080960035E-2,9.255209565E-2,3.436374664E-2
7.846929757E0,3.682523966E-2,1.046065986E-1,4.355621338E-2
7.862920968E0,3.223559260E-2,1.198805273E-1,-3.339576721E-2
7.878881661E0,4.335626960E-2,1.423991323E-1,-3.128433228E-2
7.894872872E0,2.299800515E-2,1.770967245E-1,-4.830932617E-2
7.910894601E0,2.270281315E-3,1.833922863E-1,-1.477241516E-2
7.926855294E0,4.600226879E-3,1.743618846E-1,2.591133118E-2
7.942877023E0,-9.622663260E-3,1.928393543E-1,-7.588386536E-3
7.958837716E0,-1.603412628E-2,1.419300437E-1,3.310012817E-2
7.974828927E0,2.353686094E-2,1.152363718E-1,-2.201461792E-2
7.990820138E0,2.148920298E-2,1.008433104E-1,-1.514091492E-1
8.006780831E0,3.620919585E-2,1.116570532E-1,-3.661632538E-2
8.022772042E0,4.306277633E-2,1.395834684E-1,1.098823547E-2
8.038702218E0,3.763887286E-2,1.114454865E-1,5.984306335E-3
8.054723947E0,4.612454772E-2,1.236956418E-1,4.412174225E-2
8.070684640E0,1.510807872E-2,1.163185537E-1,1.766014099E-2
8.086645333E0,2.261888981E-2,1.278901696E-1,-1.350784302E-2
8.102606027E0,2.966198325E-2,1.232514083E-1,-5.663871765E-2
8.118536202E0,3.924781084E-2,1.317765415E-1,-2.080345154E-2
8.134496896E0,2.959707379E-2,1.235149205E-1,-5.199718475E-2
8.150457589E0,4.627168179E-3,1.197819710E-1,3.062248230E-3
8.166418282E0,1.067858934E-2,9.707412124E-2,-4.961204529E-2
8.182440011E0,5.223870277E-3,1.053769290E-1,4.613685608E-2
8.198431222E0,-1.267075539E-3,9.756550193E-2,-4.255199432E-2
8.214361398E0,-1.178985834E-2,1.093795300E-1,-1.157855988E-2
8.230291573E0,-4.616558552E-3,1.213941872E-1,-4.051017761E-2
8.246313302E0,2.556699514E-2,1.263331175E-1,-5.263042450E-2
8.262273995E0,3.053295612E-2,1.260429025E-1,2.631187439E-2
8.278295724E0,6.810843945E-3,1.129602194E-1,-2.640247345E-2
8.294225900E0,5.403995514E-3,1.044106036E-1,-2.647399902E-2
8.310186593E0,6.857693195E-3,9.140187502E-2,4.549026489E-3
8.326116769E0,3.021895885E-2,8.099512756E-2,-2.430152893E-2
8.342138497E0,-1.851797104E-2,1.066306978E-1,-4.356098175E-2
8.358129708E0,1.800662279E-2,1.131156832E-1,4.272460938E-3
8.374120919E0,-3.230571747E-4,9.859319031E-2,-3.160572052E-2
8.390112130E0,2.569848299E-2,8.762195706E-2,-2.926921844E-2
8.406072823E0,2.872228622E-2,1.290139705E-1,1.604938507E-2
8.422002999E0,2.509325743E-2,1.168810278E-1,-1.989078522E-2
8.438024728E0,3.318315744E-2,9.774282575E-2,-2.948093414E-2
8.453985421E0,2.576410770E-3,1.004218012E-1,-1.032352448E-2
8.469946114E0,1.822024584E-2,1.124424934E-1,8.800506592E-3
8.485906808E0,3.597617149E-3,1.222831905E-1,-5.113220215E-2
8.501867501E0,2.468824387E-2,1.044361293E-1,-2.487754822E-2
8.517828195E0,1.988756657E-2,1.184718609E-1,-4.654026031E-2
8.533819405E0,-2.128958702E-3,1.487616003E-1,1.266479492E-3
8.549810616E0,1.487439871E-2,9.683242440E-2,1.114301682E-1
8.565771310E0,-4.754722118E-3,1.153326184E-1,4.448699951E-2
8.581732003E0,6.948530674E-3,9.600266814E-2,-9.669303894E-2
8.597692697E0,5.632340908E-3,1.054926217E-1,-2.728748322E-2
8.613622872E0,1.216506958E-2,9.398995340E-2,-1.538276672E-2
8.629644601E0,1.374840736E-3,1.017179340E-1,-1.183910370E-1
8.645605294E0,4.953360558E-2,9.962043911E-2,-3.716659546E-2
8.661627023E0,7.112836838E-2,1.080080196E-1,1.446628571E-1
8.677618234E0,1.524084806E-2,8.089356124E-2,-1.545095444E-1
8.693548409E0,1.674818993E-2,1.091709062E-1,-1.208944321E-1
8.709539620E0,2.514594793E-2,1.908914149E-1,1.424560547E-1
8.725500314E0,2.155679464E-2,1.895080805E-1,1.209325790E-1
8.741522042E0,4.302710295E-2,1.802212149E-1,1.090784073E-1
8.757513253E0,3.789621592E-2,1.568328738E-1,4.697132111E-2
8.773504464E0,9.586870670E-3,1.424394399E-1,-1.348857880E-1
8.789495675E0,-2.169847488E-2,1.025411934E-1,-1.610956192E-1
8.805425851E0,-2.943575382E-2,9.472650290E-2,-4.602909088E-2
8.821417062E0,-5.276799202E-3,1.112490594E-1,6.181907654E-2
8.837408273E0,-3.595054150E-3,1.234100237E-1,5.706405640E-2
8.853368966E0,3.723680973E-2,1.124489680E-1,1.635360718E-2
8.869329659E0,3.954708576E-2,1.065577343E-1,-3.631305695E-2
8.885259835E0,1.221716404E-3,1.451403350E-1,-5.785274506E-2
8.901251046E0,1.966661215E-2,1.550697237E-1,4.446029663E-3
8.917211739E0,-1.844066381E-2,1.682007015E-1,-7.533073425E-3
8.933202950E0,-6.506025791E-3,1.735096276E-1,1.880645752E-2
8.949194161E0,1.489031315E-2,1.882634312E-1,-3.865051270E-2
8.965185372E0,2.515661716E-2,1.667106450E-1,8.354949951E-2
8.981176583E0,2.506732941E-2,1.256143600E-1,9.328842163E-3
8.997167794E0,5.256950855E-3,1.056665927E-1,-1.799106598E-1
9.013159005E0,-1.547509432E-2,1.209080592E-1,-6.263732910E-2
9.029150216E0,3.206151724E-2,1.535266638E-1,8.823776245E-2
9.045080392E0,1.608729362E-2,1.542179883E-1,2.130985260E-2
9.061071603E0,1.487892866E-2,1.491500288E-1,5.250358582E-2
9.077062814E0,7.256627083E-3,1.394901574E-1,2.098083496E-5
9.093054025E0,8.715748787E-3,1.110433638E-1,-4.541110992E-2
9.109045236E0,2.286672592E-2,1.212147325E-1,-1.426315308E-2
9.124975411E0,1.952546835E-2,1.275312603E-1,-6.925487518E-2
9.140966622E0,1.139670610E-2,1.365959942E-1,-4.042243958E-2
9.156957833E0,1.509660482E-2,1.515687108E-1,2.192211151E-2
9.172949044E0,9.506642818E-3,9.605847299E-2,4.339218140E-4
9.188940255E0,-2.376335859E-2,1.004650146E-1,1.719188690E-2
9.204900948E0,-1.106971502E-2,1.114811599E-1,-9.056377411E-2
9.220892159E0,-6.275177002E-4,1.146438122E-1,-4.508495331E-2
9.236852853E0,1.679623127E-2,1.471811086E-1,7.597923279E-3
9.252874581E0,4.502129555E-2,1.686647385E-1,2.684211731E-2
9.268865792E0,-3.870129585E-3,1.495168954E-1,2.215671539E-2
9.284826486E0,1.055264473E-2,1.296207309E-1,1.033878326E-2
9.300817697E0,1.728749275E-2,1.059027612E-1,-5.411052704E-2
9.316778390E0,8.951187134E-3,1.153267622E-1,-4.681301117E-2
9.332769601E0,1.778948307E-2,1.369212270E-1,-1.080417633E-2
9.348760812E0,1.745921373E-2,1.185017824E-1,3.952789307E-2
9.364690988E0,1.424330473E-2,9.925776720E-2,3.242015839E-2
9.380712716E0,-4.257559776E-3,1.143295318E-1,-1.771926880E-2
9.396673409E0,2.773225307E-3,1.111842170E-1,-8.085250854E-3
9.412664620E0,1.510673761E-2,1.033953279E-1,4.701232910E-2
9.428655831E0,4.375934601E-3,1.210863367E-1,-3.921127319E-2
9.444647042E0,-1.342886686E-2,1.105802953E-1,-6.079006195E-2
9.460638253E0,2.968770266E-2,1.248824075E-1,-2.241992950E-2
9.476629464E0,2.185040712E-2,1.437421739E-1,6.412506104E-3
9.492620675E0,2.672290802E-2,1.409856379E-1,1.023483276E-1
9.508581368E0,4.922509193E-3,1.220700368E-1,-6.504917145E-2
9.524542062E0,-9.269714355E-3,1.050360650E-1,-9.597301483E-2
9.540533273E0,6.660401821E-3,1.214348823E-1,8.610439301E-2
9.556463448E0,4.677236080E-3,1.120672524E-1,4.316997528E-2
9.572485177E0,3.926676512E-2,1.217781603E-1,-1.889467239E-1
9.588476388E0,2.126336098E-2,1.409094036E-1,8.400058746E-2
9.604437081E0,2.882117033E-2,1.177302599E-1,7.459926605E-2
9.620397775E0,-9.356141090E-4,9.605854750E-2,-1.717138290E-1
9.636358468E0,1.815479994E-2,1.314519942E-1,-1.817321777E-2
9.652380197E0,3.548443317E-2,1.663839221E-1,1.185703278E-1
9.668371407E0,3.079843521E-2,1.841052920E-1,5.896854401E-2
9.684332101E0,5.306774378E-2,1.860019863E-1,8.085632324E-2
9.700323312E0,5.187273026E-3,1.667540669E-1,2.119636536E-2
9.716253488E0,-2.903193235E-2,1.254995614E-1,-6.491279602E-2
9.732275216E0,-3.933542967E-2,1.076723859E-1,-1.007032394E-1
9.748266427E0,-4.706203938E-2,1.109631062E-1,-4.558372498E-2
9.764227120E0,4.851460457E-3,1.015457064E-1,4.796981812E-3
9.780187814E0,1.439392567E-2,1.320787966E-1,4.553985596E-2
9.796209542E0,2.448689938E-2,1.278343797E-1,4.817008972E-3
9.812200753E0,2.344208956E-2,1.193991899E-1,-4.819869995E-3
9.828191964E0,-4.917442799E-3,1.385243982E-1,1.914978027E-2
9.844152657E0,-2.145773172E-2,1.399324238E-1,7.197380066E-3
9.860143868E0,5.261301994E-4,1.766224355E-1,2.155208588E-2
9.876074044E0,1.906234026E-2,1.850887537E-1,-2.525329590E-3
9.892095773E0,8.546352386E-3,1.874645054E-1,-3.858280182E-2
9.908056466E0,3.878945112E-2,1.579960287E-1,6.914329529E-2
9.924047677E0,1.748168468E-2,9.544280916E-2,-6.021595001E-2
9.940069405E0,5.845844746E-3,7.233496010E-2,-1.942939758E-1
9.956060616E0,4.045677185E-2,1.008018926E-1,1.506500244E-1
9.972051827E0,2.336376905E-2,1.164807454E-1,7.169151306E-2
9.988043038E0,2.065551281E-2,1.580107212E-1,-2.638053894E-2
1.000400373E1,7.431209087E-3,1.565279663E-1,-1.425647736E-2
1.002002546E1,3.241741657E-2,1.438184381E-1,6.960773468E-2
1.003598615E1,9.677112103E-3,1.447549164E-1,3.150653839E-2
1.005197736E1,6.483852863E-3,1.192133874E-1,-7.621955872E-2
1.006796858E1,1.973539591E-2,1.390846968E-1,-2.346038818E-2
1.008392927E1,-9.031414986E-3,1.466618031E-1,2.887725830E-3
1.009992048E1,-1.114696264E-2,1.073149964E-1,1.721096039E-2
1.011588117E1,-3.154933453E-3,1.362684071E-1,6.026077271E-2
1.013187238E1,-6.010293961E-3,1.265534163E-1,-6.191349030E-2
1.014786360E1,4.271686077E-3,1.395631582E-1,-6.666564941E-2
1.016382429E1,6.650090218E-3,1.752313375E-1,-1.154708862E-2
1.017981550E1,2.045029402E-2,1.858086586E-1,8.183002472E-2
1.019571516E1,-1.158714294E-3,1.612696946E-1,4.345607758E-2
1.021167585E1,3.625571728E-3,1.493919194E-1,-2.363491058E-2
1.022766706E1,5.913138390E-3,1.205184087E-1,-4.528903961E-2
1.024368879E1,3.788709641E-3,1.212437898E-1,-9.266853333E-3
1.025964948E1,2.574872971E-2,1.273019612E-1,1.941204071E-2
1.027567121E1,7.252514362E-3,1.329432726E-1,7.440185547E-2
1.029166242E1,3.880262375E-3,1.475189030E-1,-3.342151642E-2
1.030759260E1,-4.178345203E-3,1.534885168E-1,-5.743026733E-2
1.032361433E1,1.788663864E-2,1.653290540E-1,-4.783344269E-2
1.033957502E1,2.252763510E-2,1.530892402E-1,1.681327820E-2
1.035559675E1,-1.761853695E-2,1.425013542E-1,4.729270935E-3
1.037152693E1,-1.068019867E-2,1.343336999E-1,2.861022949E-2
1.038751814E1,9.670853615E-4,1.332876980E-1,1.897525787E-2
1.040347883E1,1.117122173E-2,1.484837234E-1,-4.818820953E-2
1.041950056E1,4.232406616E-3,1.325768381E-1,-4.349994659E-2
1.043549177E1,1.673758030E-2,1.480600834E-1,-5.079269409E-2
1.045142194E1,1.558309793E-2,1.702945679E-1,2.087116241E-2
1.046741316E1,2.640181780E-2,1.754011214E-1,1.523361206E-1
1.048337385E1,-2.701699734E-3,1.285066605E-1,-4.408645630E-2
1.049939558E1,-1.740014553E-2,1.369049549E-1,-1.709814072E-1
1.051538679E1,1.948285103E-2,1.444438547E-1,5.167293549E-2
1.053137800E1,7.276535034E-4,1.542317718E-1,6.362247467E-2
1.054736921E1,-4.000622034E-2,1.533989608E-1,-2.213010788E-1
1.056332990E1,3.071898222E-2,1.826170087E-1,7.795047760E-2
1.057932111E1,4.224121571E-2,1.239690408E-1,1.689338684E-1
1.059531232E1,7.563769817E-3,1.154276952E-1,-2.331438065E-1
1.061130354E1,1.705598831E-2,1.603995264E-1,-7.254219055E-2
1.062729475E1,2.020901442E-2,1.958230138E-1,1.788387299E-1
1.064325544E1,4.452466965E-5,2.165895849E-1,8.771133423E-2
1.065924665E1,3.266668320E-2,2.468543649E-1,4.695987701E-2
1.067514631E1,8.056581020E-3,2.109677047E-1,1.574611664E-2
1.069113752E1,-3.410857916E-2,1.745612770E-1,-8.261013031E-2
1.070709821E1,-4.729843140E-2,1.519339383E-1,-1.210880280E-1
1.072308943E1,-5.917072296E-3,1.382613331E-1,-3.983306885E-2
1.073911115E1,-4.958319664E-2,1.316812336E-1,1.977157593E-2
1.075510236E1,1.492697001E-2,1.479070634E-1,7.215881348E-2
1.077103254E1,1.876533031E-3,1.698301435E-1,5.040740967E-2
1.078699323E1,1.628994942E-2,1.569723189E-1,4.666328430E-3
1.080292341E1,1.385849714E-2,1.646076441E-1,-4.344081879E-2
1.081891462E1,2.208179235E-2,2.048299909E-1,-6.525707245E-2
1.083487531E1,1.057833433E-2,2.189125270E-1,-1.281166077E-2
1.085086652E1,8.784770966E-3,2.365993857E-1,4.440689087E-2
1.086685774E1,1.722460985E-2,2.425760925E-1,8.197784424E-3
1.088281843E1,-7.591366768E-3,2.178208679E-1,2.233123779E-2
1.089880964E1,3.238195181E-2,1.854388714E-1,-1.856803894E-2
1.091470930E1,-3.358721733E-3,1.395484805E-1,-1.672201157E-1
1.093073103E1,2.807390690E-2,1.373150796E-1,-4.529285431E-2
1.094669172E1,2.595734596E-2,1.623472124E-1,1.918983459E-2
1.096268293E1,4.420876503E-3,1.693316400E-1,3.579902649E-2
1.097858259E1,2.519059181E-2,1.888805479E-1,6.921005249E-2
1.099457380E1,2.412682772E-2,1.942426711E-1,2.123165131E-2
1.101050398E1,1.593947411E-2,1.916246116E-1,-1.238155365E-2
1.102649519E1,1.018732786E-2,1.869808882E-1,-4.838562012E-2
1.104245588E1,1.522755623E-2,2.014363706E-1,-5.319118500E-2
1.105847761E1,-1.864087582E-2,1.991296262E-1,-3.640079498E-2
1.107443830E1,3.427684307E-3,1.859507263E-1,1.867866516E-2
1.109036848E1,6.332635880E-3,1.891115755E-1,2.824878693E-2
1.110635969E1,-8.723139763E-4,1.645123661E-1,-2.450370789E-2
1.112232038E1,2.207636833E-3,1.443745196E-1,-2.701187134E-2
1.113834211E1,-1.879054308E-2,1.546942294E-1,-7.979202271E-2
1.115433332E1,2.815186977E-3,1.656185687E-1,6.617736816E-2
1.117032453E1,-1.746654510E-3,1.776613891E-1,-2.965831757E-2
1.118628523E1,3.597378731E-3,1.696268320E-1,2.773857117E-2
1.120221540E1,1.580536366E-2,1.761121750E-1,-2.497291565E-2
1.121820661E1,2.738654613E-3,1.540584564E-1,-3.511428833E-3
1.123419782E1,-1.290905476E-2,1.682868451E-1,-7.301425934E-2
1.125018903E1,3.469830751E-2,1.527693719E-1,-3.584861755E-3
1.126618025E1,-6.136119366E-3,1.757716238E-1,-4.429340363E-2
1.128211042E1,1.042139530E-2,1.679918468E-1,-2.753448486E-2
1.129810163E1,-5.280017853E-3,1.573921144E-1,-1.309490204E-2
1.131409284E1,-4.281222820E-3,1.658478081E-1,-5.825996399E-3
1.133008405E1,1.331329346E-2,1.642631292E-1,5.892753601E-2
1.134607527E1,3.766417503E-4,1.689806134E-1,-5.613327026E-3
1.136203596E1,3.597795963E-3,1.641248763E-1,-4.616832733E-2
1.137802717E1,-4.120886326E-3,1.780255139E-1,-1.506423950E-2
1.139401838E1,-2.162516117E-3,1.710717678E-1,-2.933025360E-2
1.141000959E1,3.179311752E-3,1.526241750E-1,-7.611274719E-3
1.142600080E1,2.537178993E-2,1.538305432E-1,1.157855988E-2
1.144199201E1,3.551185131E-3,1.671595573E-1,-1.706409454E-2
1.145801374E1,-1.394850016E-2,1.520736516E-1,-3.610515594E-2
1.147400495E1,2.761542797E-3,1.634889543E-1,-9.690284729E-3
1.148993513E1,-4.894375801E-3,1.586984992E-1,-7.205009460E-3
1.150595686E1,-8.286416531E-3,1.653375030E-1,2.406024933E-2
1.152191755E1,2.515554428E-3,1.548614800E-1,1.704311371E-2
1.153793928E1,-8.415341377E-3,1.156416833E-1,-4.323959351E-3
1.155393049E1,7.632434368E-3,1.484629512E-1,-1.614475250E-2
1.156986066E1,-3.806629777E-2,1.690559685E-1,-3.755474091E-2
1.158585188E1,-1.341104507E-2,1.492177248E-1,-2.549362183E-2
1.160178205E1,5.126386881E-3,1.799031198E-1,-2.773094177E-2
1.161780378E1,-7.585287094E-4,1.838212013E-1,1.795959473E-2
1.163379499E1,3.152459860E-3,1.681948602E-1,1.098823547E-2
1.164978620E1,1.647466421E-2,1.480091214E-1,-5.553245544E-3
1.166574690E1,1.810285449E-2,1.449851692E-1,4.220962524E-3
1.168167707E1,-1.541513205E-2,1.563975811E-1,-9.981155396E-3
1.169769880E1,-3.169864416E-3,1.346827447E-1,-3.378200531E-2
1.171369001E1,6.395816803E-3,1.385667324E-1,-9.353923798E-2
1.172962019E1,1.248314977E-2,1.417675614E-1,-7.908535004E-2
1.174561140E1,3.280502558E-2,1.711016893E-1,4.724502563E-3
1.176157209E1,3.371024132E-2,1.972898543E-1,1.174001694E-1
1.177759382E1,1.065403223E-3,1.434102952E-1,5.066871643E-3
1.179358503E1,-1.499590278E-2,1.327188015E-1,-1.264104843E-1
1.180951521E1,-2.795833349E-2,1.778337359E-1,-3.778076172E-2
1.182550642E1,4.501551390E-3,1.683197618E-1,-3.535652161E-2
1.184146711E1,-2.170220017E-2,1.700446010E-1,-1.695261002E-1
1.185748884E1,3.214547038E-2,2.182283103E-1,2.444868088E-1
1.187348005E1,3.036496043E-2,1.520858705E-1,-6.673812866E-3
1.188941023E1,-2.105996013E-2,1.056510210E-1,-3.343830109E-1
1.190543195E1,1.398655772E-2,1.547326148E-1,-2.122879028E-1
1.192133161E1,2.027603984E-2,2.065043747E-1,5.095481873E-2
1.193732282E1,2.094447613E-2,2.185635269E-1,1.228599548E-1
1.195322248E1,3.052887321E-2,2.286308408E-1,1.877985001E-1
1.196924421E1,1.663398743E-2,2.517158687E-1,1.021471024E-1
1.198523542E1,-1.219281554E-2,2.213951051E-1,-2.653884888E-2
1.200119611E1,-3.314116597E-2,1.853244305E-1,-1.337585449E-1
1.201715681E1,-5.239844322E-2,1.625007391E-1,-1.357555389E-1
1.203311750E1,-1.703679562E-2,1.809208095E-1,-5.657672882E-2
1.204913923E1,1.331323385E-2,1.597603858E-1,-1.095581055E-2
1.206513044E1,6.790101528E-3,1.836962402E-1,-3.574371338E-3
1.208109113E1,5.379319191E-4,1.974833310E-1,-2.490711212E-2
1.209708234E1,-1.789459586E-2,2.027297616E-1,-1.731014252E-2
1.211301252E1,4.540324211E-3,1.838040948E-1,-3.112602234E-2
1.212900373E1,5.984038115E-3,1.875633597E-1,1.484107971E-2
1.214493391E1,1.585486531E-2,1.985523105E-1,-5.151367188E-2
1.216095564E1,-3.331094980E-3,2.298554778E-1,2.548027039E-2
1.217688581E1,6.364375353E-3,1.927278042E-1,-5.305576324E-2
1.219287702E1,-1.703947783E-3,1.744180322E-1,-1.898479462E-2
1.220886823E1,1.090794802E-2,1.530036926E-1,-7.593631744E-2
1.222479841E1,3.638565540E-4,1.498591304E-1,-6.117916107E-2
1.224082014E1,2.740710974E-3,1.413694024E-1,-5.866050720E-3
1.225678083E1,1.817357540E-2,1.524401903E-1,-1.755046844E-2
1.227277204E1,8.455455303E-3,1.548054218E-1,-7.534027100E-3
1.228873274E1,-1.478129625E-2,1.677767634E-1,-2.170276642E-2
1.230472395E1,7.860064507E-3,1.592246890E-1,2.182865143E-2
1.232068464E1,2.796119452E-2,1.531422138E-1,-1.603603363E-2
1.233670637E1,2.232742310E-2,1.480172276E-1,-4.440689087E-2
1.235266706E1,1.710841060E-2,1.366398931E-1,-1.299953461E-2
1.236862776E1,3.005391359E-2,1.300277114E-1,-3.181934357E-2
1.238458845E1,1.916599274E-2,1.381435394E-1,-3.390693665E-2
1.240061018E1,-1.543059945E-2,1.389951706E-1,-2.881622314E-2
1.241654035E1,-2.528160810E-2,1.491481662E-1,-2.613735199E-2
1.243253156E1,-8.097440004E-3,1.587276459E-1,-1.387596130E-2
1.244846174E1,2.122938633E-3,1.654711366E-1,3.671360016E-2
1.246445295E1,1.584887505E-2,1.689958572E-1,3.510475159E-3
1.248041364E1,5.744725466E-3,1.442178488E-1,-4.408645630E-2
1.249643537E1,1.373267174E-2,1.609411240E-1,-1.985931396E-2
1.251242658E1,9.078383446E-3,1.473678946E-1,1.952171326E-3
1.252835676E1,2.052634954E-3,1.506165266E-1,-2.412414551E-2
1.254434797E1,-5.291372538E-3,1.326484084E-1,-3.584194183E-2
1.256030866E1,1.128691435E-2,1.393188238E-1,1.703834534E-2
1.257633039E1,-2.294182777E-3,1.288909316E-1,-1.928329468E-3
1.259235212E1,-8.242845535E-3,1.324893236E-1,-3.765010834E-2
1.260828230E1,1.427528262E-2,1.387164593E-1,-2.549171448E-2
1.262427351E1,3.218892217E-2,1.476535201E-1,-3.012084961E-2
1.264023420E1,1.894682646E-2,1.377466321E-1,-8.433341980E-3
1.265622541E1,1.457995176E-2,1.491932869E-1,-3.218936920E-2
1.267224714E1,7.308930159E-3,1.631124616E-1,6.323814392E-3
1.268820783E1,-7.011294365E-3,1.408470869E-1,-2.218723297E-2
1.270416853E1,2.413794398E-2,1.636856794E-1,-2.193832397E-2
1.272019026E1,1.726734638E-2,1.462163329E-1,-9.758949280E-3
1.273618147E1,6.040093303E-2,1.360911131E-1,-1.194190979E-2
1.275217268E1,-1.460462809E-3,1.337368488E-1,-3.333759308E-2
1.276813337E1,-5.016416311E-3,1.147798896E-1,5.072593689E-3
1.278412458E1,-1.329988241E-3,1.292527318E-1,9.967803955E-3
1.280005476E1,-7.584840059E-3,1.411905289E-1,-2.581024170E-2
1.281601545E1,9.983778000E-6,1.456004381E-1,-4.077911377E-3
1.283197614E1,7.728248835E-3,1.475817561E-1,-8.290386200E-2
1.284799787E1,3.898501396E-3,1.359680295E-1,-6.124973297E-2
1.286395857E1,1.177844405E-2,1.063480973E-1,-4.685020447E-2
1.287994978E1,-8.529871702E-3,1.344462633E-1,2.736091614E-2
1.289597150E1,4.352420568E-3,1.393047571E-1,6.579971313E-2
1.291190168E1,-7.413327694E-4,1.425818801E-1,-2.008628845E-2
1.292789289E1,1.376122236E-3,1.250152588E-1,-9.644794464E-2
1.294382307E1,-4.380524158E-3,1.196663976E-1,1.605606079E-2
1.295984480E1,1.293748617E-2,1.333872080E-1,-2.940940857E-2
1.297580549E1,9.292304516E-3,1.785560250E-1,-1.036567688E-1
1.299179670E1,1.156049967E-2,2.185114026E-1,2.095775604E-1
1.300775739E1,1.955953240E-2,1.296800375E-1,-8.482074738E-2
1.302371809E1,1.642879844E-2,6.083732843E-2,-3.027734756E-1
1.303973982E1,1.047998667E-3,7.833760977E-2,-1.861772537E-1
1.305570051E1,1.943543553E-2,1.410200000E-1,2.603721619E-2
1.307172224E1,3.889605403E-2,1.611405611E-1,1.284980774E-1
1.308768293E1,1.948875189E-2,2.068184614E-1,1.380119324E-1
1.310367414E1,5.007356405E-3,2.205571532E-1,2.820873260E-2
1.311963484E1,3.821462393E-3,1.890140176E-1,-1.685142517E-2
1.313565656E1,-3.704255819E-2,1.683759093E-1,-7.163047791E-2
1.315167829E1,1.159772277E-2,1.386064291E-1,-9.792613983E-2
1.316770002E1,2.254959941E-2,1.573154926E-1,-3.109359741E-2
1.318366071E1,1.667511463E-2,1.672989726E-1,-5.050945282E-2
1.319965193E1,1.301643252E-2,1.432632804E-1,6.898307800E-2
1.321555158E1,4.522591829E-3,1.419964433E-1,6.603240967E-3
1.323154279E1,-1.719564199E-3,1.448307037E-1,1.627731323E-2
1.324747297E1,-1.472279429E-2,1.504899859E-1,-3.378105164E-2
1.326349470E1,-3.982126713E-3,1.611503959E-1,-5.750751495E-2
1.327945539E1,-1.646995544E-2,2.070999146E-1,-6.924724579E-2
1.329547712E1,3.523871303E-2,2.054270506E-1,-2.095413208E-2
1.331146833E1,2.873134613E-2,2.001367211E-1,-2.520179749E-2
1.332739851E1,4.519262910E-2,1.611177325E-1,2.825641632E-2
1.334338972E1,-3.981947899E-3,1.923260093E-1,-6.702136993E-2
1.335935041E1,-1.655125618E-2,1.388707757E-1,-7.404232025E-2
1.337537214E1,1.471692324E-2,1.240484118E-1,-3.791522980E-2
1.339136335E1,8.149027824E-3,1.256279945E-1,-7.379436493E-2
1.340735456E1,2.549406886E-2,1.424984336E-1,-6.975173950E-3
1.342334577E1,3.462326527E-2,1.396158934E-1,-7.285118103E-3
1.343927595E1,2.078041434E-2,1.612020135E-1,1.213264465E-2
1.345526716E1,4.568755627E-3,1.511749625E-1,2.201175690E-2
1.347125837E1,1.050195098E-2,1.155675054E-1,-4.241466522E-2
1.348724958E1,2.819210291E-2,1.056423783E-1,-1.598548889E-2
1.350321028E1,2.185171843E-2,1.135386825E-1,-2.794075012E-2
1.351914045E1,9.278655052E-4,1.288318038E-1,-4.469108582E-2
1.353513166E1,-7.346123457E-3,1.321367621E-1,-6.865310669E-2
1.355112287E1,-2.763053775E-2,1.597402692E-1,-8.306407928E-2
1.356711408E1,3.552079201E-3,1.263480186E-1,1.754980087E-1
1.358310529E1,-1.945149899E-2,1.051933169E-1,-9.733104706E-2
1.359906599E1,-1.341086626E-2,1.476645470E-1,-3.509140015E-2
1.361505720E1,-3.850817680E-3,1.914642453E-1,-1.856803894E-2
1.363104841E1,-2.069580555E-2,1.832250953E-1,-3.763771057E-2
1.364703962E1,1.332214475E-2,1.228660941E-1,-6.137847900E-2
1.366303083E1,1.385965943E-2,1.388451457E-1,-1.044387817E-1
1.367899152E1,2.670496702E-3,1.362278461E-1,8.707904816E-2
1.369501325E1,1.532024145E-2,9.816718102E-2,-1.334190369E-2
1.371100446E1,-7.135987282E-3,9.909021854E-2,-6.596755981E-2
1.372699568E1,-5.790293217E-4,1.018552184E-1,-2.058696747E-2
1.374298689E1,1.223379374E-2,1.303064823E-1,-1.802349091E-2
1.375897810E1,4.108178616E-2,1.518139243E-1,4.135131836E-2
1.377499982E1,2.123242617E-2,1.624357104E-1,7.848739624E-4
1.379099104E1,1.020225883E-2,1.249473691E-1,-1.259202957E-1
1.380692121E1,-4.181563854E-4,1.280057430E-1,-3.015708923E-2
1.382291242E1,9.004384279E-3,1.168633103E-1,-1.483917236E-3
1.383887312E1,-1.775652170E-3,1.114349961E-1,-1.094121933E-1
1.385489484E1,2.732163668E-2,1.394773126E-1,1.896085739E-1
1.387091657E1,3.079712391E-3,1.224436760E-1,-6.893157959E-2
1.388684675E1,2.247866988E-2,1.086171865E-1,-2.246837616E-1
1.390283796E1,1.635360718E-2,1.166095734E-1,-1.558036804E-1
1.391879865E1,-9.221673012E-3,1.527234316E-1,-1.999855042E-2
1.393482038E1,2.886152267E-2,1.525660157E-1,1.208534241E-1
1.395081159E1,2.385339141E-2,1.961660385E-1,1.159696579E-1
1.396671125E1,2.450022101E-2,2.140209079E-1,7.065677643E-2
1.398270246E1,1.212170720E-2,2.120078802E-1,-9.180259705E-2
1.399866316E1,-1.605454087E-2,1.726067662E-1,-1.011447906E-1
1.401468488E1,-2.260369062E-2,1.263312101E-1,-6.520175934E-2
1.403067610E1,-1.708975434E-2,1.206734776E-1,-3.901290894E-2
1.404660627E1,-4.510819912E-3,1.470909119E-1,-2.964878082E-2
1.406259748E1,-1.342445612E-3,1.542814374E-1,1.323223114E-2
1.407861921E1,1.308488846E-2,1.761345267E-1,2.296161652E-2
1.409457990E1,-5.836188793E-4,1.465755105E-1,8.626937866E-3
1.411060163E1,-2.077871561E-2,1.389303207E-1,-8.220100403E-2
1.412656232E1,9.089052677E-3,1.327468157E-1,3.037929535E-2
1.414252302E1,3.804862499E-3,1.910303831E-1,-2.465534210E-2
1.415854475E1,1.386764646E-2,1.828515530E-1,-3.639221191E-2
1.417450544E1,1.404222846E-2,1.852647662E-1,2.381706238E-2
1.419052717E1,2.520471811E-2,1.336999536E-1,-8.610630035E-2
1.420645734E1,2.635246515E-2,1.309391856E-1,-1.890850067E-2
1.422244856E1,2.940183878E-2,1.532049775E-1,-4.035854340E-2
1.423840925E1,1.783227921E-2,1.401728988E-1,-2.832221985E-2
1.425443098E1,1.087120175E-2,1.487209201E-1,-2.825260162E-2
1.427042219E1,1.078090072E-2,1.449223757E-1,-4.011249542E-2
1.428638288E1,5.606830120E-3,1.269466877E-1,-6.481170654E-3
1.430237409E1,6.732165813E-3,1.234276891E-1,-1.549720764E-3
1.431833479E1,2.656146884E-2,1.202343106E-1,-1.577472687E-2
1.433435652E1,1.072016358E-2,1.197359562E-1,-2.045822144E-2
1.435034773E1,4.772603512E-3,1.455628276E-1,8.363723755E-3
1.436633894E1,1.524612308E-2,1.542320848E-1,-2.262115479E-2
1.438233015E1,2.684146166E-3,1.420400143E-1,-3.049850464E-3
1.439829084E1,-6.330192089E-3,1.328469515E-1,8.491516113E-3
1.441428205E1,-1.294881105E-2,1.290959716E-1,3.711509705E-2
1.443027326E1,-2.062526345E-2,1.191039681E-1,2.969360352E-2
1.444626447E1,5.343943834E-3,1.385385394E-1,2.460670471E-2
1.446228620E1,1.730144024E-3,1.373250484E-1,9.912490845E-3
1.447824690E1,-1.676082611E-4,1.324323416E-1,-5.529403687E-2
1.449426862E1,9.061962366E-3,1.270616055E-1,-9.205245972E-2
1.451029035E1,1.339825988E-2,9.014928341E-2,-3.556442261E-2
1.452622053E1,3.501325846E-2,1.246632934E-1,-1.257038116E-2
1.454218122E1,4.386305809E-3,1.362744570E-1,4.643058777E-2
1.455811140E1,1.402261853E-2,1.406771541E-1,1.994895935E-2
1.457410261E1,-1.260012388E-3,1.404510140E-1,-7.676982880E-2
1.459009382E1,9.780913591E-3,1.576628089E-1,-5.331325531E-2
1.460608503E1,-4.435181618E-4,1.535859108E-1,4.434013367E-2
1.462207624E1,-6.739437580E-3,1.383950114E-1,-9.951210022E-2
1.463803694E1,3.771507740E-2,1.607090235E-1,1.045513153E-2
1.465402815E1,4.361212254E-2,1.310326457E-1,-1.713752747E-3
1.466995832E1,2.320745587E-2,8.274537325E-2,-1.191549301E-1
1.468598005E1,4.312747717E-2,7.160973549E-2,-1.817464828E-1
1.470197126E1,1.008906960E-2,8.518218994E-2,-2.706527710E-2
1.471793195E1,1.287937164E-3,1.432830691E-1,9.416866302E-2
1.473392316E1,3.156107664E-2,1.619902253E-1,1.295232773E-1
1.474988386E1,4.136049747E-2,1.751400232E-1,8.134746552E-2
1.476587507E1,2.429297566E-2,1.517950296E-1,2.143859863E-3
1.478186628E1,9.436100721E-3,1.427350640E-1,-6.279087067E-2
1.479782697E1,-3.424081206E-2,1.164179444E-1,-1.230411530E-1
1.481381818E1,-3.290998936E-2,1.095598936E-1,-7.807254791E-2
1.482971784E1,-7.776916027E-3,1.020399928E-1,-3.079128265E-2
1.484567854E1,1.271066070E-2,1.302125454E-1,3.805828094E-2
1.486163923E1,9.976118803E-3,1.472719908E-1,3.992938995E-2
1.487763044E1,2.627718449E-2,1.438024640E-1,-2.262496948E-2
1.489362165E1,2.753379941E-2,1.285685897E-1,-2.996158600E-2
1.490958234E1,1.538228989E-2,1.527692080E-1,-3.021812439E-2
1.492551252E1,-1.038768888E-2,1.644462943E-1,3.038406372E-3
1.494150373E1,-1.278173923E-2,1.388533711E-1,1.043224335E-2
1.495746443E1,-1.224857569E-2,1.198013425E-1,4.127693176E-2
1.497348615E1,2.026176453E-2,1.077369750E-1,-1.006574631E-1
1.498947736E1,1.352700591E-2,1.045715809E-1,-1.129722595E-1
1.500546858E1,1.928392053E-2,1.035441756E-1,-5.107784271E-2
1.502142927E1,2.079951763E-2,1.213877797E-1,1.332092285E-2
1.503738996E1,3.377383947E-2,1.376453936E-1,4.670429230E-2
1.505338117E1,4.954177141E-2,1.288452446E-1,5.595970154E-2
1.506937238E1,2.908250690E-2,1.165557802E-1,1.762771606E-2
1.508536360E1,2.849367261E-2,1.058737636E-1,-3.517341614E-2
1.510135481E1,4.464197159E-2,1.038486063E-1,-5.212306976E-2
1.511731550E1,2.807027102E-2,1.289770901E-1,-9.308338165E-2
1.513333723E1,2.147400379E-2,9.439468384E-2,9.588241577E-3
1.514932844E1,-2.784639597E-3,8.448773623E-2,-8.643436432E-2
1.516522810E1,-1.877546310E-3,8.456683159E-2,1.391887665E-2
1.518124982E1,-1.709413528E-2,8.897805214E-2,-2.459335327E-2
1.519721052E1,-2.541601658E-3,8.751219511E-2,-4.156017303E-2
1.521323225E1,8.449554443E-4,1.172075272E-1,-3.701591492E-2
1.522922346E1,-7.880747318E-3,1.229102910E-1,-1.808929443E-2
1.524518415E1,-9.453952312E-3,1.354303658E-1,-1.350688934E-2
1.526114484E1,-1.474797726E-3,1.140064299E-1,4.616641998E-2
1.527707502E1,-2.350229025E-2,1.158813238E-1,-4.324913025E-3
1.529306623E1,2.882981300E-2,1.084240675E-1,-1.891422272E-2
1.530905744E1,8.564054966E-3,8.801651001E-2,-7.420730591E-2
1.532504865E1,2.516585588E-2,9.814113379E-2,-2.891921997E-2
1.534103986E1,2.458602190E-2,9.703460336E-2,-1.714134216E-2
1.535697004E1,1.269894838E-2,1.213249862E-1,-4.366302490E-2
1.537296125E1,3.061014414E-2,9.170037508E-2,4.006671906E-2
1.538895246E1,3.579133749E-2,9.588441253E-2,1.855468750E-2
1.540494367E1,2.638739347E-2,7.310771942E-2,-5.810737610E-2
1.542093488E1,2.131807804E-2,9.245717525E-2,-8.008956909E-3
1.543689558E1,1.215600967E-2,1.121720672E-1,-1.061439514E-2
1.545291731E1,2.419346571E-2,1.324627995E-1,-1.520614624E-1
1.546890852E1,5.607002974E-2,1.475874335E-1,6.555652618E-2
1.548489973E1,5.184394121E-2,1.304953992E-1,1.348409653E-1
1.550086042E1,1.361608505E-2,8.630271256E-2,-1.858911514E-1
1.551679060E1,5.363506079E-2,8.485192060E-2,-3.991985321E-2
1.553278181E1,3.800779581E-2,1.322371066E-1,6.524658203E-2
1.554877302E1,2.335369587E-2,1.728252620E-1,5.562496185E-2
1.556476423E1,3.062766790E-2,1.892071962E-1,7.248497009E-2
1.558072492E1,1.800870895E-2,1.689729691E-1,4.397201538E-2
1.559665510E1,2.131998539E-2,1.453631222E-1,-2.770137787E-2
1.561264631E1,-4.714846611E-3,1.272269785E-1,-7.314491272E-2
1.562857649E1,-2.512001991E-2,9.396965802E-2,-7.316684723E-2
1.564459821E1,-3.161442280E-2,8.829102665E-2,-6.117057800E-2
1.566058943E1,1.936864853E-2,1.098985672E-1,1.548767090E-2
1.567655012E1,2.933830023E-2,1.244285107E-1,2.019882202E-2
1.569254133E1,3.232747316E-2,1.359121203E-1,-8.612632751E-3
1.570844099E1,4.573041201E-2,1.258863509E-1,5.764961243E-3
1.572446272E1,2.764374018E-2,1.371281743E-1,3.411293030E-3
1.574042341E1,1.533138752E-2,1.477150619E-1,-3.783226013E-3
1.575644514E1,-6.172955036E-3,1.475000978E-1,1.534748077E-2
1.577243635E1,-5.097448826E-3,1.582650244E-1,3.217601776E-2
1.578842756E1,1.440644264E-2,1.213478744E-1,2.496147156E-2
1.580444929E1,2.584880590E-2,9.535681456E-2,-1.834688187E-1
1.582040998E1,3.797078133E-2,1.125631332E-1,-4.707050323E-2
1.583640119E1,3.737539053E-2,1.320594996E-1,1.013212204E-1
1.585239240E1,-3.698647022E-3,1.389541775E-1,3.904056549E-2
1.586835310E1,2.574497461E-2,1.523393393E-1,-1.836395264E-2
1.588437483E1,3.267848492E-2,1.254162341E-1,-2.063560486E-2
1.590033552E1,2.082496881E-2,1.315453649E-1,-3.008747101E-2
1.591635725E1,3.803509474E-2,1.025291532E-1,2.508258820E-2
1.593228742E1,8.471190929E-3,1.047059968E-1,-1.318645477E-2
1.594827863E1,7.460534573E-3,1.025886610E-1,-2.031707764E-2
1.596420881E1,-6.082415581E-3,9.611637145E-2,-8.258819580E-3
1.598020002E1,9.403586388E-3,1.139957830E-1,-3.398895264E-3
1.599613020E1,-5.994677544E-3,1.114970148E-1,-9.431838989E-4
1.601215192E1,-3.701090813E-3,1.224493161E-1,1.103401184E-2
1.602814314E1,1.608985662E-2,1.212196723E-1,-4.406833649E-2
1.604407331E1,1.077693701E-2,1.350749582E-1,1.455307007E-3
1.606003401E1,-2.156734467E-3,1.533553004E-1,7.095241547E-2
1.607599470E1,-9.410679340E-3,1.349879056E-1,3.504943848E-2
1.609192487E1,3.403663635E-3,1.290191412E-1,1.484870911E-3
1.610791608E1,1.645272970E-2,1.196927726E-1,-2.011585236E-2
1.612390730E1,2.235233784E-3,9.739398211E-2,-8.235454559E-2
1.613983747E1,1.578027010E-2,8.595174551E-2,-1.047706604E-2
1.615585920E1,2.326679230E-2,9.801341593E-2,-7.968330383E-2
1.617178938E1,2.674460411E-2,1.336046755E-1,1.191558838E-1
1.618775007E1,8.100807667E-3,1.330260634E-1,9.535694122E-2
1.620371076E1,-6.491541862E-3,1.150545329E-1,-3.613758087E-2
1.621967146E1,1.923245192E-2,1.424743831E-1,-9.576225281E-2
1.623569319E1,2.016055584E-2,1.268458962E-1,9.593296051E-2
1.625165388E1,5.191564560E-3,1.191524416E-1,-2.607536316E-2
1.626767561E1,7.201433182E-3,1.606881469E-1,-1.768074036E-1
1.628360578E1,5.718827248E-2,1.660442352E-1,2.325773239E-1
1.629959699E1,1.630908251E-2,1.256697029E-1,-1.620292664E-2
1.631555769E1,3.836154938E-4,8.525377512E-2,-2.718925476E-1
1.633157942E1,-3.120601177E-3,1.305254400E-1,-5.730628967E-3
1.634757063E1,3.970080614E-2,1.631555259E-1,1.357412338E-1
1.636350080E1,1.917475462E-2,1.786983311E-1,7.131576538E-2
1.637952253E1,2.544146776E-2,2.031978965E-1,1.027383804E-1
1.639548322E1,1.732569933E-2,1.787473261E-1,3.147125244E-5
1.641150495E1,5.577325821E-3,1.437132955E-1,-9.389877319E-3
1.642749616E1,-2.761584520E-2,1.364149898E-1,-1.416015625E-2
1.644348737E1,-8.135318756E-3,9.737721086E-2,-7.157135010E-2
1.645944807E1,-2.536708117E-2,1.297641546E-1,-4.992771149E-2
1.647540876E1,7.132291794E-3,1.397828609E-1,5.557727814E-2
1.649136945E1,1.941257715E-2,1.704198420E-1,5.807781219E-2
1.650729963E1,1.748090982E-2,1.488547325E-1,3.171062469E-2
1.652332136E1,5.519449711E-3,1.358177960E-1,-5.685043335E-2
1.653928205E1,1.644968987E-2,1.580539197E-1,-4.714584351E-2
1.655530378E1,1.120865345E-3,1.491150856E-1,1.987266541E-2
1.657123396E1,1.240074635E-2,1.756628305E-1,4.400539398E-2
1.658725569E1,1.333624125E-2,1.475092918E-1,6.082344055E-2
1.660318586E1,2.588117123E-2,1.080051064E-1,-9.476661682E-2
1.661917707E1,3.423517942E-2,1.183558032E-1,-1.617670059E-1
1.663516828E1,5.413562059E-2,1.457474679E-1,1.089029312E-1
1.665119001E1,3.751438856E-2,1.657920182E-1,6.108188629E-2
1.666718122E1,9.346008301E-3,1.483193338E-1,1.330375671E-3
1.668308088E1,-5.996227264E-5,1.276360452E-1,-9.002685547E-4
1.669907209E1,2.611398697E-2,1.342838705E-1,1.606559753E-2
1.671503278E1,3.436863422E-3,1.149761602E-1,-5.084800720E-2
1.673105451E1,-9.150385857E-3,7.140378654E-2,-3.171348572E-2
1.674707624E1,6.161272526E-3,1.088504940E-1,-1.247692108E-2
1.676300642E1,3.831982613E-4,1.354020238E-1,5.959129333E-2
1.677899763E1,2.965205908E-2,1.598817706E-1,7.905483246E-2
1.679495832E1,2.206569910E-2,1.276153773E-1,3.607749939E-2
1.681098005E1,1.440000534E-2,1.190270036E-1,1.446533203E-2
1.682697126E1,8.204460144E-3,1.376408935E-1,-2.597618103E-2
1.684290144E1,3.971636295E-3,1.244517267E-1,-1.146030426E-2
1.685889265E1,7.356226444E-3,1.425074190E-1,1.500225067E-2
1.687485334E1,2.144217491E-3,1.312864721E-1,-6.498336792E-3
1.689087507E1,1.623880863E-2,1.391097307E-1,-3.998279572E-2
1.690686628E1,2.992451191E-2,1.288704574E-1,3.203392029E-3
1.692282697E1,2.444505692E-2,1.285458803E-1,5.837059021E-2
1.693881819E1,-3.213167191E-3,1.064595282E-1,-1.348495483E-3
1.695477888E1,1.172053814E-2,1.141867042E-1,-2.748394012E-2
1.697080061E1,1.079356670E-2,1.081913412E-1,-1.535511017E-2
1.698682234E1,1.017034054E-2,1.333050877E-1,5.182266235E-2
1.700281355E1,7.431268692E-3,1.052192003E-1,5.432415009E-2
1.701874372E1,4.631102085E-3,1.200484931E-1,-4.373168945E-2
1.703476545E1,-8.057594299E-3,1.214208305E-1,-7.470130920E-2
1.705072614E1,1.452034712E-2,1.159290820E-1,-4.097270966E-2
1.706674787E1,1.871782541E-2,9.801292419E-2,1.184463501E-2
1.708270857E1,2.123689651E-2,1.173789650E-1,1.430702209E-2
1.709866926E1,2.681136131E-3,1.479946226E-1,8.854389191E-2
1.711469099E1,9.733676910E-3,1.494897753E-1,4.782485962E-2
1.713065168E1,-5.917429924E-3,1.327806115E-1,-1.411581039E-1
1.714664289E1,7.961392403E-3,1.334622949E-1,-3.561496735E-2
1.716260358E1,1.835781336E-2,1.369997710E-1,1.128787994E-1
1.717856428E1,-2.807813883E-2,1.123221517E-1,-7.622241974E-2
1.719458601E1,2.179723978E-2,1.296316385E-1,-1.741905212E-1
1.721051618E1,7.671207190E-2,1.691682637E-1,3.143424988E-1
1.722650739E1,2.847534418E-2,1.025362909E-1,-7.332038879E-2
1.724243757E1,2.331733704E-4,1.005402207E-1,-3.195419312E-1
1.725845930E1,3.453975916E-2,1.535439640E-1,8.072662354E-2
1.727441999E1,3.113758564E-2,2.130773664E-1,1.911611557E-1
1.729044172E1,4.039597511E-2,2.069629431E-1,8.843231201E-2
1.730643293E1,4.771357775E-2,2.025805861E-1,5.755805969E-2
1.732236311E1,2.501809597E-2,1.870384663E-1,-2.372074127E-2
1.733835432E1,-2.032649517E-2,1.532237977E-1,-3.802108765E-2
1.735431501E1,-5.817174911E-2,1.362179518E-1,-8.099079132E-2
1.737033674E1,-2.826738358E-2,1.176376641E-1,-8.080577850E-2
1.738632795E1,-2.576017380E-2,1.219233871E-1,1.988792419E-2
1.740228864E1,1.806497574E-2,1.294756532E-1,6.302833557E-2
1.741831037E1,1.193487644E-2,1.328859180E-1,4.383659363E-2
1.743427107E1,1.954936981E-2,1.525712013E-1,6.465911865E-4
1.745029279E1,9.513437748E-3,1.865506172E-1,-6.652832031E-3
1.746628401E1,1.666951180E-2,2.019911110E-1,-3.311157227E-2
1.748221418E1,1.055598259E-4,2.183547765E-1,4.092121124E-2
1.749820539E1,2.392399311E-2,2.133003175E-1,4.786872864E-2
1.751416608E1,-2.041876316E-3,1.714092046E-1,1.884555817E-2
1.753018781E1,-6.516575813E-4,1.149021685E-1,-1.155204773E-1
1.754617902E1,8.817195892E-3,1.088562310E-1,-1.181125641E-1
1.756210920E1,4.850113392E-2,1.384222656E-1,8.532619476E-2
1.757806989E1,1.849800348E-2,1.724462807E-1,4.209518433E-2
1.759400007E1,7.025778294E-3,1.334780306E-1,6.830406189E-2
1.760999128E1,8.761048317E-3,1.421564519E-1,4.670238495E-2
1.762598249E1,1.636636257E-2,1.543136984E-1,1.281738281E-3
1.764197370E1,2.168250084E-2,1.536279470E-1,-3.205585480E-2
1.765796491E1,-5.920052528E-3,1.401668191E-1,-6.299304962E-2
1.767386457E1,-8.929133415E-3,1.477045417E-1,-5.074977875E-2
1.768985578E1,-2.161145210E-3,1.198436916E-1,2.597999573E-2
1.770581648E1,-1.162880659E-2,1.356961727E-1,8.586502075E-2
1.772180769E1,-1.924318075E-2,1.274019033E-1,7.387924194E-2
1.773779890E1,1.311933994E-2,1.728868186E-1,4.440307617E-3
1.775375959E1,-1.044392586E-3,1.801667511E-1,-5.295085907E-2
1.776975080E1,-3.828048706E-3,1.969551295E-1,-5.045032501E-2
1.778571150E1,2.646863461E-2,1.689555347E-1,4.292583466E-2
1.780170271E1,1.578265429E-2,1.609245837E-1,5.239200592E-2
1.781769392E1,3.558039665E-2,1.608527601E-1,-4.101943970E-2
1.783365461E1,2.932685614E-2,1.553656459E-1,-4.101848602E-2
1.784964582E1,1.652473211E-2,1.345230937E-1,-1.228427887E-2
1.786560652E1,7.317900658E-3,1.279099882E-1,5.227565765E-2
1.788159773E1,-8.375763893E-3,1.207982898E-1,-5.331993103E-3
1.789758894E1,-2.031677961E-2,9.106633067E-2,-3.888416290E-2
1.791358015E1,7.535696030E-3,1.282769144E-1,-3.159999847E-2
1.792957136E1,1.378846169E-2,1.344431192E-1,-9.943962097E-3
1.794556257E1,9.010195732E-3,1.470866352E-1,-5.134582520E-3
1.796155378E1,3.572982550E-2,1.136820167E-1,2.023696899E-3
1.797751447E1,-4.419267178E-3,1.320475340E-1,9.143829346E-3
1.799344465E1,1.508116722E-2,1.213923395E-1,3.542232513E-2
1.800943586E1,1.290792227E-2,1.218894124E-1,1.828193665E-3
1.802539655E1,7.035136223E-4,1.453420520E-1,-3.034591675E-3
1.804138776E1,-6.489336491E-3,1.637345999E-1,1.123428345E-2
1.805731794E1,8.006334305E-3,1.744712293E-1,-3.676986694E-2
1.807330915E1,-1.021933556E-2,1.541209072E-1,-8.211135864E-3
1.808933088E1,1.005268097E-2,1.300012469E-1,4.184246063E-2
1.810532209E1,-1.871621609E-2,1.352933347E-1,2.495956421E-2
1.812128278E1,1.906561852E-2,1.222971827E-1,-8.647918701E-3
1.813727400E1,5.637347698E-3,1.214516908E-1,-1.352596283E-2
1.815326521E1,1.825296879E-2,1.467516869E-1,-4.711914062E-2
1.816928694E1,-3.247678280E-3,1.062206328E-1,-1.119241714E-1
1.818527815E1,-3.121554852E-2,1.080513597E-1,4.405975342E-4
1.820123884E1,6.154119968E-3,1.384216249E-1,-1.876354218E-2
1.821723005E1,1.715898514E-3,1.355824769E-1,7.936191559E-2
1.823319074E1,2.692586184E-2,1.490935832E-1,7.678794861E-2
1.824918195E1,1.959979534E-2,1.688813120E-1,4.299736023E-2
1.826517316E1,2.226799726E-2,1.574431062E-1,-7.352828979E-3
1.828119489E1,3.322726488E-2,1.377422065E-1,-6.961631775E-2
1.829718610E1,1.198559999E-2,1.586841345E-1,-1.030111313E-1
1.831314680E1,4.330217838E-3,1.729312837E-1,-3.827190399E-2
1.832910749E1,1.597160101E-2,2.028942257E-1,1.341686249E-1
1.834512922E1,1.291543245E-2,1.477989852E-1,6.866455078E-5
1.836108991E1,-4.928171635E-3,1.427448690E-1,-1.531600952E-1
1.837708112E1,2.688443661E-2,1.451790631E-1,1.917648315E-2
1.839304182E1,-2.821862698E-3,1.483994126E-1,1.219882965E-1
1.840906355E1,-2.156847715E-2,1.201931834E-1,-1.606721878E-1
1.842505476E1,4.534721375E-3,1.627834737E-1,2.352046967E-2
1.844104597E1,2.383869886E-2,1.604216397E-1,1.836967468E-1
1.845703718E1,-1.589977741E-2,1.115875840E-1,-2.401332855E-1
1.847299787E1,-1.174390316E-3,1.721362770E-1,-1.994380951E-1
1.848889753E1,9.246730804E-2,2.719077766E-1,2.433528900E-1
1.850491926E1,4.734444618E-2,2.612175047E-1,1.592159271E-1
1.852084944E1,4.487359524E-2,2.277470976E-1,3.192615509E-2
1.853681013E1,5.586028099E-3,2.278655469E-1,-9.050464630E-2
1.855280134E1,2.202653885E-2,2.073203921E-1,-7.153224945E-2
1.856879255E1,-8.838832378E-3,1.954846680E-1,-4.058551788E-2
1.858475324E1,-2.029448748E-2,1.656424403E-1,2.618408203E-2
1.860071394E1,6.196618080E-3,1.347512156E-1,6.179523468E-2
1.861670515E1,2.654618025E-2,1.277599335E-1,6.388378143E-2
1.863266584E1,3.836280107E-2,1.435937583E-1,-5.887985229E-3
1.864868757E1,3.096979856E-2,1.762607843E-1,-7.085323334E-2
1.866467878E1,-7.144510746E-3,1.886887550E-1,-9.750556946E-2
1.868066999E1,-1.079034805E-2,1.972045898E-1,-9.312629700E-3
1.869663069E1,-4.446744919E-3,2.483882159E-1,6.235694885E-2
1.871265241E1,1.366823912E-2,2.653404772E-1,5.959129333E-2
1.872861311E1,9.613633156E-4,2.520289123E-1,1.130867004E-2
1.874463484E1,-1.100313663E-2,2.209346443E-1,2.770233154E-2
1.876056501E1,1.070344448E-2,1.824686825E-1,-6.838607788E-2
1.877658674E1,-1.025348902E-2,1.364286840E-1,-1.333150864E-1
1.879254743E1,7.342517376E-3,1.526916027E-1,2.446174622E-2
1.880856916E1,2.047389746E-2,1.592473090E-1,2.421855927E-2
1.882456037E1,4.165291786E-3,1.623219401E-1,5.753421783E-2
1.884055158E1,4.042327404E-3,1.782919317E-1,5.496883392E-2
1.885651228E1,4.146695137E-4,1.923522353E-1,4.570960999E-3
1.887247297E1,1.269036531E-2,1.968227029E-1,6.916999817E-3
1.888846418E1,2.872645855E-3,1.866343468E-1,-3.140544891E-2
1.890439436E1,1.145362854E-3,1.800581515E-1,-8.174610138E-2
1.892041609E1,2.788847685E-2,1.649757326E-1,-9.628963470E-2
1.893637678E1,3.170371056E-4,1.920919269E-1,2.798843384E-2
1.895239851E1,2.186423540E-2,2.028501481E-1,8.769607544E-2
1.896832868E1,8.759081364E-3,2.253649086E-1,9.480190277E-2
1.898431989E1,-1.669925451E-2,2.101120353E-1,1.095771790E-2
1.900028059E1,-3.994822502E-3,2.070016116E-1,2.050495148E-2
1.901624128E1,4.018187523E-3,2.208296061E-1,-6.093025208E-2
1.903226301E1,2.454376221E-2,1.951861829E-1,-8.301734924E-3
1.904822370E1,6.562232971E-3,1.639676839E-1,-2.985095978E-2
1.906421491E1,2.033889294E-2,1.941715181E-1,-6.100559235E-2
1.908014509E1,1.779669523E-2,1.937120110E-1,8.383750916E-3
1.909613630E1,-3.004091978E-2,1.416117698E-1,4.903793335E-2
1.911209699E1,-5.959630013E-3,1.877430081E-1,5.392932892E-2
1.912811872E1,4.610300064E-3,1.614067852E-1,-1.066875458E-2
1.914410993E1,-1.120316982E-2,1.765271872E-1,3.744125366E-3
1.916007063E1,1.094710827E-2,1.636713296E-1,-3.210258484E-2
1.917609236E1,1.261526346E-2,1.512162536E-1,-4.406833649E-2
1.919205305E1,1.833528280E-2,1.581599563E-1,3.259658813E-2
1.920807478E1,2.476716042E-2,1.576555669E-1,-2.245235443E-2
1.922406599E1,-1.393604279E-2,1.658845842E-1,-8.069038391E-3
1.924002668E1,8.710086346E-3,1.525204331E-1,2.074146271E-2
1.925601789E1,2.391809225E-2,1.650098562E-1,-5.576419830E-2
1.927197859E1,5.791425705E-3,1.926527321E-1,-2.215194702E-2
1.928800031E1,1.110959053E-2,1.721801907E-1,-3.877735138E-2
1.930399152E1,-7.542967796E-3,1.618436724E-1,-3.376007080E-4
1.931998274E1,-9.188890457E-3,1.565046012E-1,1.893424988E-2
1.933594343E1,-1.516598463E-2,1.507347524E-1,-1.115798950E-4
1.935190412E1,-6.810903549E-3,1.237029433E-1,-2.394294739E-2
1.936789533E1,-1.000744104E-2,1.265670806E-1,-1.190757751E-2
1.938388654E1,8.069276810E-3,1.604574323E-1,-2.243041992E-3
1.939987776E1,6.965279579E-3,1.633557379E-1,-2.130603790E-2
1.941586897E1,-1.016658545E-2,1.544927657E-1,1.226139069E-2
1.943179914E1,2.539813519E-3,1.549958289E-1,3.859329224E-2
1.944779035E1,3.007292747E-3,1.663710475E-1,-4.456520081E-3
1.946375105E1,-2.063274384E-3,1.301949620E-1,-5.464935303E-2
1.947974226E1,1.129817963E-2,1.721267104E-1,-9.525966644E-2
1.949573347E1,7.085680962E-3,1.721503735E-1,-4.008960724E-2
1.951169416E1,2.736538649E-2,1.958742142E-1,4.850959778E-2
1.952765486E1,1.242285967E-2,2.092096806E-1,1.203346252E-1
1.954361555E1,-1.097023487E-2,1.641036868E-1,-1.596164703E-2
1.955960676E1,-9.289383888E-3,1.722134650E-1,-1.067085266E-1
1.957556745E1,-1.357239485E-2,1.808286607E-1,-3.959465027E-2
1.959155866E1,-1.091712713E-2,1.656250358E-1,3.232002258E-2
1.960748884E1,-2.448844910E-2,1.586659849E-1,-1.759510040E-1
1.962348005E1,3.838115931E-2,1.993366778E-1,1.710405350E-1
1.963947126E1,1.334047318E-2,1.587283611E-1,6.337928772E-2
1.965543195E1,1.487040520E-2,1.242292821E-1,-2.619943619E-1
1.967139265E1,5.009591579E-3,1.486969590E-1,-2.117176056E-1
1.968741438E1,1.905077696E-2,1.949133575E-1,2.761840820E-2
1.970340559E1,2.905404568E-2,1.980458796E-1,9.700202942E-2
1.971939680E1,2.673101425E-2,2.199606299E-1,1.426334381E-1
1.973538801E1,1.963788271E-2,2.356709242E-1,7.809925079E-2
1.975134870E1,1.851487160E-2,2.583293617E-1,1.859283447E-2
1.976727888E1,-1.645070314E-2,2.221421301E-1,2.123832703E-3
1.978330061E1,-1.401990652E-2,1.790413857E-1,-4.315948486E-2
1.979923078E1,-4.236876965E-3,1.438392103E-1,-1.424694061E-2
1.981522199E1,1.028454304E-2,1.301041842E-1,-2.593040466E-2
1.983118269E1,2.804100513E-3,1.549236178E-1,-4.706668854E-2
1.984720442E1,-8.033514023E-3,1.671411991E-1,-4.665660858E-2
1.986319563E1,1.187801361E-2,1.764747798E-1,-5.347251892E-2
1.987912580E1,-1.808977127E-2,1.800399125E-1,-6.994056702E-2
1.989511701E1,1.369559765E-2,1.875984371E-1,1.151371002E-2
1.991101667E1,2.376437187E-4,2.107825577E-1,1.159954071E-2
1.992700788E1,-3.514587879E-3,2.136557400E-1,-1.939296722E-2
1.994296858E1,2.808511257E-3,2.114196718E-1,5.526828766E-2
1.995895979E1,-3.729754686E-2,1.568004489E-1,-1.023855209E-1
1.997498152E1,-7.577955723E-3,1.343216896E-1,-4.233360291E-2
1.999094221E1,1.276969910E-3,1.638734341E-1,-9.013271332E-2
2.000693342E1,1.140791178E-2,1.606977284E-1,9.574890137E-4
2.002292463E1,2.190738916E-2,1.664996445E-1,2.036190033E-2
2.003888532E1,2.156275511E-2,1.783728302E-1,2.313232422E-2
2.005487653E1,-7.793307304E-4,1.923561692E-1,9.065628052E-3
2.007080671E1,1.738637686E-2,1.773223877E-1,1.166725159E-2
2.008682844E1,-5.054473877E-3,1.572121978E-1,-1.912021637E-2
2.010281965E1,-1.589059830E-4,1.621686816E-1,-4.510116577E-2
2.011881086E1,2.105510235E-2,1.541601419E-1,3.661155701E-2
2.013480207E1,3.498387337E-2,1.418786645E-1,-3.731822968E-2
2.015076276E1,2.094805241E-2,1.677471399E-1,2.040481567E-2
2.016675398E1,1.177716255E-2,1.550718546E-1,-5.354213715E-2
2.018274519E1,-1.162135601E-2,1.479609013E-1,-5.331516266E-2
2.019873640E1,-1.183390617E-2,1.439158916E-1,-2.674770355E-2
2.021472761E1,5.132257938E-3,1.499981880E-1,-7.412910461E-3
2.023065778E1,-1.641333103E-3,1.505043507E-1,-2.408981323E-3
2.024664900E1,1.292699575E-2,1.575601697E-1,-9.326934814E-3
2.026260969E1,-1.042079926E-2,1.385486722E-1,-3.782653809E-2
2.027860090E1,4.324018955E-3,1.673238277E-1,-1.664161682E-3
2.029459211E1,9.517252445E-3,1.626277566E-1,-1.578235626E-2
2.031055280E1,-1.545256376E-2,1.606917381E-1,-3.954601288E-2
2.032657453E1,-1.864731312E-3,1.543503404E-1,-2.024745941E-2
2.034253523E1,-5.366384983E-3,1.460871100E-1,-3.447628021E-2
2.035855695E1,-6.615042686E-3,1.449358463E-1,-2.235603333E-2
2.037451765E1,-9.360313416E-4,1.435697675E-1,1.373386383E-2
2.039050886E1,2.115964890E-2,1.352808475E-1,-2.439308167E-2
2.040643903E1,1.201337576E-2,1.345115304E-1,-2.661895752E-2
2.042246076E1,1.930069923E-2,1.363091469E-1,-1.926136017E-2
2.043839094E1,-1.164865494E-2,1.333634257E-1,-1.190853119E-2
2.045438215E1,2.485567331E-2,1.353570223E-1,-2.852916718E-2
2.047028181E1,-8.912682533E-4,1.470182538E-1,-1.881694794E-2
2.048627302E1,-9.792923927E-3,1.513851285E-1,-4.980278015E-2
2.050226423E1,-6.668925285E-3,1.463239789E-1,-1.855182648E-2
2.051825544E1,5.685031414E-3,1.408039927E-1,-2.556037903E-2
2.053421613E1,-8.808076382E-3,1.230885386E-1,-2.280044556E-2
2.055017683E1,2.771615982E-3,1.512281895E-1,-2.765464783E-2
2.056616804E1,2.516484261E-2,1.575776935E-1,-5.946159363E-3
2.058209821E1,1.157450676E-2,1.444777846E-1,1.339149475E-2
2.059811994E1,2.220019698E-2,1.408375502E-1,-2.473735809E-2
2.061411115E1,-4.524886608E-4,1.141605377E-1,-7.490634918E-2
2.063004133E1,1.735392213E-2,1.254917979E-1,-3.900527954E-2
2.064603254E1,1.370227337E-2,1.469653845E-1,8.979797363E-3
2.066202375E1,1.622971892E-2,1.642660499E-1,1.192264557E-1
2.067801496E1,-8.238852024E-4,1.424817443E-1,-1.929569244E-2
2.069397566E1,-1.999068260E-2,1.170665622E-1,-1.195974350E-1
2.070996687E1,-3.582307696E-2,1.518240571E-1,-2.140712738E-2
2.072589704E1,-2.321738005E-2,1.121915579E-1,-2.853393555E-2
2.074191877E1,1.977184415E-2,1.335086823E-1,-2.400398254E-2
2.075787946E1,1.318103075E-2,1.750139594E-1,1.025295258E-1
2.077384016E1,1.390489936E-2,1.362723112E-1,-5.777072906E-2
2.078980085E1,-1.565659046E-2,9.663712978E-2,-2.324542999E-1
2.080576154E1,1.686266065E-2,1.483221650E-1,-1.681623459E-1
2.082169172E1,4.039406776E-2,1.798387766E-1,5.163764954E-2
2.083765241E1,4.835596681E-2,2.030956745E-1,8.976554871E-2
2.085361311E1,5.275505781E-2,2.065447569E-1,1.209659576E-1
2.086960432E1,1.476103067E-2,2.010732889E-1,3.028774261E-2
2.088562605E1,-1.220005751E-2,1.930024624E-1,-6.747913361E-2
2.090152570E1,-1.744270325E-2,1.621408463E-1,-6.476974487E-2
2.091748640E1,-2.469617128E-2,1.387684345E-1,-9.577178955E-2
2.093344709E1,-5.154669285E-3,1.372589469E-1,-4.078292847E-2
2.094940778E1,5.054831505E-3,1.416521072E-1,-2.657985687E-2
2.096542951E1,1.891797781E-2,1.486527920E-1,-4.118537903E-2
2.098142072E1,-5.318582058E-3,1.590726972E-1,-3.671169281E-2
2.099738142E1,-5.458265543E-3,1.770732999E-1,3.010082245E-2
2.101334211E1,-1.839664578E-2,1.739488244E-1,4.950428009E-2
2.102927229E1,-8.657574654E-3,2.105672359E-1,6.651687622E-2
2.104517194E1,1.405048370E-2,2.104306817E-1,2.399253845E-2
2.106119367E1,1.501098275E-2,2.008804083E-1,-5.263710022E-2
2.107715437E1,1.933312416E-2,1.906837821E-1,-3.817081451E-2
2.109311506E1,3.525322676E-2,1.708279848E-1,-7.156276703E-2
2.110907575E1,1.940503716E-2,1.455208659E-1,-9.785556793E-2
2.112497541E1,1.430466771E-2,1.723695993E-1,-7.823944092E-2
2.114096662E1,1.082789898E-2,1.678827405E-1,-4.436492920E-2
2.115692732E1,1.214921474E-2,1.614432335E-1,1.821327209E-2
2.117288801E1,-1.012355089E-3,1.479683518E-1,-2.934551239E-2
2.118887922E1,-4.704743624E-3,1.327132583E-1,4.995536804E-2
2.120487043E1,1.815155149E-2,1.344411373E-1,-5.273056030E-2
2.122077009E1,1.672250032E-2,1.155921221E-1,-3.814792633E-2
2.123670026E1,2.759838104E-2,1.289333105E-1,2.183437347E-2
2.125269148E1,1.231443882E-2,1.303248405E-1,-2.832698822E-2
2.126868269E1,1.375877857E-2,1.512863636E-1,-3.302574158E-2
2.128470442E1,8.511066437E-3,1.648148894E-1,-1.379108429E-2
2.130069563E1,-3.214120865E-3,1.540937424E-1,-3.527069092E-2
2.131668684E1,-1.744073629E-2,1.526482701E-1,-8.841514587E-3
2.133267805E1,-1.907521486E-2,1.508722901E-1,-2.790927887E-2
2.134866926E1,-8.481055498E-3,1.581041813E-1,-3.854751587E-3
2.136462995E1,8.639633656E-3,1.362194419E-1,-2.283477783E-2
2.138065168E1,1.589334011E-2,1.386806965E-1,-1.309680939E-2
2.139658186E1,2.050122619E-2,1.461479068E-1,-4.166793823E-2
2.141254255E1,1.089820266E-2,1.160589457E-1,-1.523399353E-2
2.142850324E1,3.032588959E-2,1.342756748E-1,-1.757621765E-2
2.144446394E1,3.249412775E-2,1.146101952E-1,-2.949810028E-2
2.146045515E1,-1.262471080E-2,1.122933030E-1,-1.755142212E-2
2.147641584E1,5.219042301E-3,1.105582118E-1,-1.765441895E-2
2.149243757E1,-1.128315926E-3,1.228498220E-1,-1.293087006E-2
2.150833723E1,6.338000298E-3,1.301872730E-1,-5.773544312E-3
2.152432844E1,2.487128973E-2,1.416229606E-1,-3.204059601E-2
2.154022810E1,2.171397209E-2,1.431450248E-1,-4.869842529E-2
2.155624983E1,1.378378272E-2,1.377251744E-1,-1.749134064E-2
2.157221052E1,1.813510060E-2,1.511348486E-1,-1.740074158E-2
2.158823225E1,1.340556145E-2,1.337677240E-1,-1.017665863E-2
2.160416242E1,-1.528537273E-2,1.495287418E-1,-2.686691284E-2
2.162015363E1,-5.454838276E-3,1.292312145E-1,-1.482677460E-2
2.163611433E1,-1.472425461E-2,1.375191212E-1,-1.953792572E-2
2.165207502E1,2.157261968E-2,1.357702613E-1,-2.673149109E-3
2.166803571E1,1.715078950E-2,1.422815323E-1,-1.940250397E-2
2.168405744E1,6.196528673E-3,1.291459203E-1,-1.697635651E-2
2.170004865E1,-4.423618317E-3,1.260492206E-1,-7.205963135E-2
2.171600935E1,-1.532393694E-2,1.334828138E-1,-4.579639435E-2
2.173200056E1,9.911477566E-3,1.342269778E-1,-2.915573120E-2
2.174796125E1,1.520386338E-2,1.249905229E-1,6.656169891E-2
2.176398298E1,1.510331035E-2,1.406459212E-1,6.904220581E-2
2.177997419E1,1.669955254E-2,1.139253974E-1,-8.394622803E-2
2.179593488E1,3.136476874E-2,1.196890473E-1,-1.247329712E-1
2.181189558E1,2.454134822E-2,1.301209331E-1,1.165580750E-2
2.182785627E1,-1.590317488E-2,1.211264133E-1,-4.586029053E-2
2.184384748E1,-2.544760704E-3,1.578501463E-1,-5.795955658E-2
2.185977766E1,6.004273891E-3,1.645389795E-1,1.718511581E-1
2.187579939E1,1.110887527E-2,1.246995926E-1,-1.080560684E-1
2.189179060E1,2.025869489E-2,8.512151241E-2,-2.326660156E-1
2.190778181E1,4.050034285E-2,1.110076308E-1,-1.015729904E-1
2.192371198E1,4.190063477E-2,1.535510421E-1,6.303977966E-2
2.193967268E1,4.218992591E-2,1.666033864E-1,9.385967255E-2
2.195566389E1,2.528619766E-2,1.915715337E-1,8.417510986E-2
2.197159406E1,9.232819080E-3,2.074185014E-1,1.010513306E-2
2.198761579E1,-1.550990343E-2,1.805154681E-1,-6.626224518E-2
2.200357649E1,-4.002836347E-2,1.278160810E-1,-6.606292725E-2
2.201959821E1,-4.046669602E-2,1.108548045E-1,-6.842041016E-2
2.203552839E1,-1.841533184E-2,1.036856771E-1,-3.988456726E-2
2.205151960E1,3.974515200E-2,1.316655874E-1,1.247119904E-2
2.206751081E1,4.270982742E-2,1.646020412E-1,1.966476440E-2
2.208353254E1,1.731306314E-2,1.808887124E-1,5.267333984E-2
2.209952375E1,-6.386458874E-3,1.455217600E-1,-2.114295959E-3
2.211548444E1,-5.912244320E-3,1.544819474E-1,1.004028320E-2
2.213147566E1,2.510607243E-3,1.753540635E-1,-3.529834747E-2
2.214743635E1,3.286245465E-2,1.832875013E-1,3.208160400E-3
2.216345808E1,6.996005774E-3,1.925728917E-1,-1.246452332E-3
2.217944929E1,4.825675488E-2,1.566663384E-1,-6.797313690E-2
2.219544050E1,5.814403296E-3,1.435436010E-1,-2.226352692E-2
2.221146223E1,1.631247997E-2,1.319019198E-1,2.811622620E-2
2.222736189E1,2.860149741E-2,1.260286570E-1,-2.210044861E-2
2.224335310E1,-9.659379721E-3,1.518803239E-1,6.661415100E-3
2.225934431E1,7.260471582E-3,1.349155903E-1,-7.697105408E-3
2.227533552E1,2.324041724E-2,1.394881010E-1,-4.577636719E-4
2.229132673E1,1.422584057E-2,1.279538870E-1,1.396846771E-2
2.230728742E1,7.170259953E-3,1.050564051E-1,2.597999573E-2
2.232327863E1,2.242726088E-2,1.070107818E-1,-3.633213043E-2
2.233930036E1,-6.938397884E-3,1.049257517E-1,1.139068604E-2
2.235523054E1,1.427906752E-2,1.412896514E-1,-7.947921753E-3
2.237122175E1,-7.729291916E-3,1.368985176E-1,-4.164123535E-2
2.238718244E1,-2.936601639E-3,1.301941872E-1,1.251220703E-3
2.240320417E1,4.573106766E-3,1.203837991E-1,2.741909027E-2
2.241919538E1,-1.917082071E-2,1.345288157E-1,-2.541637421E-2
2.243512556E1,-6.172358990E-3,1.151474714E-1,-4.073143005E-3
2.245108625E1,-5.521535873E-3,1.148573160E-1,-2.067756653E-2
2.246701643E1,-1.133990288E-2,1.356565356E-1,-3.093910217E-2
2.248300764E1,8.472502232E-4,1.260476112E-1,-3.111362457E-2
2.249893781E1,4.878044128E-4,1.401903033E-1,-2.166843414E-2
2.251495954E1,2.494463325E-2,1.094425321E-1,-9.914398193E-3
2.253095075E1,1.859816909E-2,1.434122324E-1,-5.362510681E-3
2.254691145E1,4.791766405E-3,1.127619743E-1,1.596260071E-2
2.256281110E1,1.991820335E-2,1.139636040E-1,-1.783847809E-2
2.257880232E1,-7.973462343E-3,1.057486534E-1,-3.010463715E-2
2.259482404E1,1.607081294E-2,1.049665213E-1,-3.516674042E-2
2.261081526E1,-7.877945900E-4,1.187933683E-1,-3.783798218E-2
2.262677595E1,1.803016663E-2,1.255301833E-1,-1.656055450E-2
2.264270612E1,5.318781734E-2,1.201465726E-1,-1.440238953E-2
2.265872785E1,1.416030526E-2,1.150001884E-1,9.287834167E-3
2.267465803E1,2.529010177E-2,1.145328879E-1,-1.010227203E-2
2.269064924E1,-8.575201035E-3,1.047266722E-1,-2.474212646E-2
2.270654890E1,-1.090547442E-2,1.054144502E-1,-1.072978973E-2
2.272254011E1,-3.066420555E-3,1.234529018E-1,-1.593494415E-2
2.273853132E1,1.225438714E-2,1.173990369E-1,5.068492889E-2
2.275452253E1,4.453361034E-3,1.200515032E-1,-9.573936462E-3
2.277051374E1,1.938512921E-2,9.749758244E-2,-2.674007416E-2
2.278647444E1,-1.114755869E-3,9.987336397E-2,-1.525783539E-2
2.280249616E1,1.021403074E-2,1.053107977E-1,-3.257369995E-2
2.281848737E1,6.539762020E-3,1.155936718E-1,1.239299774E-2
2.283447859E1,1.689255238E-3,1.289548874E-1,3.118896484E-2
2.285043928E1,-2.146339417E-2,1.073972583E-1,-2.407264709E-2
2.286639997E1,-9.039878845E-3,1.055308580E-1,-9.863567352E-2
2.288239118E1,2.096295357E-3,1.078535318E-1,1.565933228E-2
2.289835188E1,-7.656991482E-3,1.068350673E-1,5.363559723E-2
2.291434309E1,-7.677525282E-3,1.008092165E-1,-1.382255554E-1
2.293036482E1,1.649379730E-2,1.235501766E-1,3.608894348E-2
2.294632551E1,2.475494146E-2,1.032323241E-1,7.414340973E-2
2.296231672E1,8.618533611E-3,7.458508015E-2,-2.132043839E-1
2.297827741E1,9.720385075E-3,8.548271656E-2,-1.369647980E-1
2.299426862E1,3.376382589E-2,1.662905514E-1,9.948444366E-2
2.301025984E1,2.391588688E-2,1.672914028E-1,1.158599854E-1
2.302622053E1,3.498774767E-2,1.755657792E-1,1.084518433E-1
2.304215070E1,2.286881208E-2,1.596589684E-1,7.000923157E-2
2.305814192E1,2.176678181E-2,1.568449736E-1,-4.266548157E-2
2.307416364E1,-1.689356565E-2,1.118595302E-1,-1.147203445E-1
2.309015486E1,-3.968584538E-2,8.434918523E-2,-1.126461029E-1
2.310611555E1,-3.362774849E-3,9.494724870E-2,-4.597949982E-2
2.312210676E1,1.739948988E-2,9.569576383E-2,6.613731384E-2
2.313806745E1,3.373491764E-2,1.145497262E-1,-1.564025879E-2
2.315402815E1,2.053123713E-2,1.393320560E-1,4.164886475E-2
2.317001936E1,3.563117981E-2,1.326616108E-1,-3.499698639E-2
2.318598005E1,7.811903954E-3,1.553091407E-1,-7.576370239E-2
2.320200178E1,1.041805744E-2,1.970280707E-1,5.617141724E-3
2.321799299E1,-2.972549200E-2,1.660471857E-1,2.237224579E-2
2.323395368E1,-6.598532200E-3,1.733700931E-1,1.762294769E-2
2.324991438E1,1.396381855E-2,1.428383887E-1,2.004623413E-2
2.326584455E1,1.245510578E-2,1.060158312E-1,-6.146430969E-2
2.328183576E1,3.238886595E-2,9.804412723E-2,-1.406755447E-1
2.329776594E1,6.008750200E-2,9.778660536E-2,7.546424866E-3
2.331378767E1,-1.627391577E-2,1.344296336E-1,6.490993500E-2
2.332974836E1,1.280850172E-2,1.145370305E-1,3.613471985E-2
2.334577009E1,3.834038973E-2,1.047850251E-1,1.698207855E-2
2.336166975E1,3.026944399E-2,1.148773134E-1,-2.613067627E-2
2.337766096E1,2.213609219E-2,9.542661905E-2,-2.380466461E-2
2.339368269E1,2.617126703E-2,8.945441246E-2,-4.069137573E-2
2.340967390E1,5.592644215E-3,1.221308708E-1,-2.911281586E-2
2.342563459E1,8.753418922E-3,1.179278195E-1,-7.895469666E-3
2.344156477E1,8.684515953E-3,1.122433543E-1,-1.753807068E-2
2.345758650E1,-5.731105804E-3,9.685420990E-2,-2.477931976E-2
2.347357771E1,4.033505917E-3,1.056663394E-1,8.664131165E-3
2.348950788E1,-7.150948048E-3,1.004316509E-1,-3.215217590E-2
2.350552961E1,-3.365635872E-3,1.165078878E-1,-1.074218750E-2
2.352152082E1,2.020478249E-2,1.275021732E-1,3.219318390E-2
2.353754255E1,5.397140980E-3,1.325503886E-1,3.341674805E-3
2.355353376E1,2.171003819E-2,1.346816123E-1,-1.112556458E-2
2.356946394E1,4.053026438E-2,1.109057069E-1,-1.842689514E-2
2.358548566E1,3.056663275E-2,8.563914895E-2,5.893707275E-4
2.360144636E1,1.625496149E-2,1.203740239E-1,1.000308990E-2
2.361743757E1,-5.755484104E-3,8.872762322E-2,-2.126884460E-2
2.363336774E1,2.153682709E-2,9.744562209E-2,-5.731773376E-2
2.364935896E1,1.060575247E-2,1.096073091E-1,-2.874660492E-2
2.366535017E1,2.833348513E-2,1.003607810E-1,-3.847122192E-2
2.368137190E1,1.957863569E-2,7.852394879E-2,2.126789093E-2
2.369736311E1,5.904430151E-2,9.180879593E-2,2.594661713E-2
2.371329328E1,1.703011990E-2,1.058748960E-1,3.545856476E-2
2.372925398E1,1.365327835E-2,1.104299724E-1,2.814865112E-2
2.374518415E1,3.120982647E-2,1.077637672E-1,-5.094242096E-2
2.376117536E1,-6.230413914E-3,1.209774911E-1,-5.104541779E-2
2.377716657E1,1.174342632E-2,1.349602193E-1,-5.348396301E-2
2.379315778E1,1.166343689E-3,1.294486970E-1,1.111316681E-2
2.380914900E1,3.261101246E-2,1.314468086E-1,1.069355011E-1
2.382510969E1,1.552987099E-2,1.191028208E-1,8.787727356E-2
2.384100935E1,2.499818802E-4,8.698005974E-2,-8.200454712E-2
2.385703108E1,1.565426588E-2,1.159291416E-1,-6.994438171E-2
2.387299177E1,-2.145290375E-3,1.175857037E-1,-4.482269287E-4
2.388898298E1,-2.802813053E-2,1.261322200E-1,-9.368610382E-2
2.390494367E1,1.307350397E-2,1.298273504E-1,-9.355545044E-2
2.392096540E1,5.122387409E-2,1.208882183E-1,2.368879318E-1
2.393695661E1,2.812665701E-2,8.742570132E-2,-7.896137238E-2
2.395294782E1,2.109706402E-3,9.382348508E-2,-1.698236465E-1
2.396893903E1,1.674604416E-2,1.662594825E-1,7.438945770E-2
2.398489973E1,1.525568962E-2,2.042667717E-1,9.822845459E-2
2.400086042E1,2.366232872E-2,2.244192064E-1,5.757522583E-2
2.401682111E1,2.313619852E-2,2.068050355E-1,9.126186371E-2
2.403281233E1,2.305006981E-2,1.869330108E-1,5.221366882E-3
2.404877302E1,-4.703181982E-2,1.082583144E-1,-1.288213730E-1
2.406479475E1,-1.677167416E-2,1.250438243E-1,-6.174945831E-2
2.408072492E1,1.585066319E-3,1.298199594E-1,-3.298664093E-2
2.409674665E1,2.626538277E-3,1.468899250E-1,3.412818909E-2
2.411267683E1,-1.748663187E-2,1.003509760E-1,3.179550171E-2
2.412863752E1,-3.377676010E-3,1.274998039E-1,4.618453979E-2
2.414456770E1,3.045374155E-2,1.577997208E-1,-7.833290100E-2
2.416055891E1,2.160722017E-2,1.478125304E-1,3.026008606E-3
2.417655012E1,4.274684191E-2,1.528818011E-1,-4.722023010E-2
2.419254133E1,3.225117922E-2,1.756150126E-1,7.254981995E-2
2.420850202E1,-3.991901875E-3,1.729116142E-1,-3.756237030E-2
2.422449323E1,-5.813419819E-3,1.596952528E-1,-1.536369324E-3
2.424051496E1,1.476991177E-2,1.110035032E-1,-4.935932159E-2
2.425650617E1,-3.368914127E-3,7.056165487E-2,-1.956129074E-1
2.427249738E1,7.723808289E-3,1.017987132E-1,-5.217361450E-2
2.428848860E1,3.551799059E-2,1.284177005E-1,1.991767883E-1
2.430441877E1,4.483640194E-3,1.508706361E-1,7.710838318E-2
2.432037946E1,2.674841881E-2,1.551955938E-1,4.613018036E-2
2.433634016E1,1.908546686E-2,1.712461561E-1,3.199100494E-2
2.435233137E1,2.847969532E-2,1.552937627E-1,1.782989502E-2
2.436832258E1,4.095000029E-2,1.416625082E-1,-6.101417542E-2
2.438431379E1,2.715706825E-2,1.324346066E-1,-9.201908112E-2
2.440027448E1,3.176462650E-2,1.323718727E-1,-2.000904083E-2
2.441626570E1,2.279073000E-2,1.058426052E-1,1.364517212E-2
2.443219587E1,-6.976187229E-3,1.145954728E-1,-5.427360535E-3
2.444821760E1,-2.269583941E-2,1.301085502E-1,-2.935409546E-3
2.446414778E1,2.782344818E-3,1.295444965E-1,-3.638172150E-2
2.448016950E1,-1.193988323E-2,1.350993812E-1,-2.196407318E-2
2.449616071E1,1.437062025E-2,1.453207135E-1,3.073883057E-2
2.451215192E1,1.677596569E-2,1.279125959E-1,7.385063171E-2
2.452811262E1,-8.883714676E-3,1.216188893E-1,-1.955795288E-2
2.454404279E1,1.797610521E-2,1.352230608E-1,-7.604598999E-3
2.456003401E1,-1.297128201E-2,1.324914694E-1,-4.350852966E-2
2.457599470E1,1.268613338E-2,1.256111562E-1,-3.404617310E-4
2.459201643E1,1.020503044E-2,1.212762594E-1,1.645565033E-2
2.460800764E1,6.088554859E-3,1.144342646E-1,3.559589386E-2
2.462393781E1,1.584446430E-2,1.220395043E-1,-3.620910645E-2
2.463992902E1,1.292306185E-2,1.159398556E-1,-4.571151733E-2
2.465588972E1,3.299343586E-2,1.217554808E-1,-2.881526947E-2
2.467188093E1,1.221477985E-2,1.026711315E-1,1.202201843E-2
2.468787214E1,1.850289106E-2,9.034115076E-2,4.923820496E-3
2.470383283E1,-7.025778294E-3,1.355883330E-1,2.504348755E-3
2.471982404E1,1.253521442E-2,1.628722847E-1,7.192230225E-2
2.473575422E1,-5.542218685E-3,1.378844678E-1,1.932144165E-2
2.475177595E1,-4.358291626E-3,1.226919591E-1,-1.386270523E-1
2.476770612E1,1.985663176E-2,1.198145971E-1,2.897548676E-2
2.478372785E1,-3.333091736E-3,1.087628752E-1,1.127338409E-1
2.479974958E1,-3.413498402E-3,1.067544892E-1,-1.625881195E-1
2.481564924E1,3.981864452E-2,1.324844211E-1,-6.886482239E-3
2.483167097E1,6.093442440E-2,1.412596256E-1,1.632213593E-1
2.484763166E1,2.334225178E-2,9.410919249E-2,-2.075672150E-1
2.486365339E1,1.011449099E-2,1.136025712E-1,-6.834888458E-2
2.487964460E1,1.043611765E-2,1.581389159E-1,1.568222046E-1
2.489563581E1,-9.140372276E-4,1.845347881E-1,8.503627777E-2
2.491159651E1,1.025670767E-2,1.831820607E-1,1.329507828E-1
2.492755720E1,2.144193649E-2,2.028180063E-1,3.030109406E-2
2.494354841E1,5.933880806E-3,1.791669875E-1,-9.651088715E-2
2.495957014E1,-9.293496609E-3,1.284787357E-1,-1.371202469E-1
2.497553083E1,-1.299816370E-2,1.090073436E-1,-5.798721313E-2
2.499146101E1,-1.637554169E-2,8.741199970E-2,1.882266998E-2
2.500748274E1,7.578849792E-3,1.059632972E-1,7.880115509E-2
2.502344343E1,1.313948631E-2,1.170788258E-1,5.967140198E-2
2.503946516E1,2.111607790E-2,1.431850940E-1,-5.286693573E-2
2.505545637E1,2.325314283E-2,1.694653928E-1,-4.322624207E-2
2.507141706E1,1.136982441E-2,1.887789071E-1,1.667404175E-2
2.508737776E1,-1.788318157E-3,2.014348209E-1,9.376525879E-3
2.510333845E1,-2.582484484E-2,2.149990201E-1,1.868915558E-2
2.511932966E1,1.670825481E-2,1.662480533E-1,5.676555634E-2
2.513525984E1,-4.284441471E-3,1.844271570E-1,-3.233909607E-3
2.515128156E1,2.053332329E-2,1.274637133E-1,-6.083011627E-2
2.516724226E1,8.797347546E-3,1.074136421E-1,-1.422643661E-1
2.518326399E1,2.263057232E-2,1.155519933E-1,-9.117126465E-4
2.519925520E1,1.959395409E-2,1.243830398E-1,1.619672775E-1
2.521524641E1,1.213550568E-2,1.429026425E-1,1.357746124E-2
2.523123762E1,-4.875302315E-3,1.493698657E-1,-5.815505981E-2
2.524719831E1,1.982915401E-2,1.684066057E-1,-2.683258057E-2
2.526312849E1,2.275925875E-2,1.562595963E-1,6.899833679E-3
2.527908918E1,-9.084522724E-3,1.472003311E-1,-1.703071594E-2
2.529501936E1,6.325244904E-4,1.385977268E-1,1.884555817E-2
2.531104109E1,-1.326680183E-3,1.446784437E-1,-2.190685272E-2
2.532697126E1,1.015782356E-3,1.415028870E-1,-6.262016296E-2
2.534299299E1,1.832842827E-2,1.340515018E-1,-4.129409790E-4
2.535895368E1,-4.678070545E-3,1.252365261E-1,9.070396423E-3
2.537497541E1,-2.083122730E-2,1.278399825E-1,-1.734828949E-2
2.539093610E1,1.271736622E-2,1.214648634E-1,4.247474670E-2
2.540695783E1,-1.085829735E-2,1.485984921E-1,4.114151001E-3
2.542291853E1,2.761298418E-2,1.386338025E-1,2.803802490E-2
2.543894026E1,1.603138447E-2,1.432155669E-1,2.082443237E-2
2.545490095E1,2.844524384E-2,1.362253278E-1,6.433486938E-3
2.547083112E1,2.059936523E-3,1.158582047E-1,-1.748275757E-2
2.548682234E1,1.849061251E-2,1.225884110E-1,-3.897190094E-2
2.550278303E1,8.039474487E-3,1.247566044E-1,-1.493072510E-2
2.551880476E1,1.960664988E-2,9.984871745E-2,4.976749420E-2
2.553479597E1,3.147655725E-2,1.164076701E-1,2.343368530E-2
2.555075666E1,1.211136580E-2,1.332922727E-1,-5.311775208E-2
2.556674787E1,2.562522888E-2,1.603238136E-1,-3.863525391E-2
2.558270857E1,3.208744526E-2,1.465622783E-1,-2.662658691E-3
2.559873029E1,3.554046154E-3,1.533392370E-1,6.430721283E-2
2.561472151E1,5.125105381E-3,1.334135532E-1,9.047698975E-2
2.563068220E1,-3.128945827E-3,1.307044923E-1,6.539344788E-3
2.564670393E1,-1.167136431E-2,1.398264021E-1,-9.648704529E-2
2.566266462E1,8.347034454E-3,1.566998810E-1,-7.729625702E-2
2.567868635E1,2.269339561E-2,1.650504470E-1,9.750461578E-2
2.569467756E1,3.488540649E-3,1.456243098E-1,9.529876709E-2
2.571066877E1,-7.396757603E-3,9.451496601E-2,-9.132957458E-2
2.572665998E1,7.027268410E-3,1.303382516E-1,-4.574584961E-2
2.574259016E1,1.131081581E-2,1.280869842E-1,1.076755524E-1
2.575858137E1,-1.349687576E-3,1.440033019E-1,-6.462764740E-2
2.577454206E1,9.929060936E-3,1.893656999E-1,-1.339635849E-1
2.579056379E1,2.767980099E-2,1.818904728E-1,3.377294540E-1
2.580649397E1,1.850467920E-2,1.431177706E-1,-3.330326080E-2
2.582251570E1,-5.473375320E-3,1.172376648E-1,-2.510032654E-1
2.583847639E1,2.647370100E-2,1.924433261E-1,-2.342224121E-2
2.585446760E1,2.752888203E-2,2.400070280E-1,8.680343628E-2
2.587039778E1,3.795057535E-2,2.373812348E-1,8.695888519E-2
2.588635847E1,1.510620117E-3,2.168710232E-1,5.360317230E-2
2.590225813E1,6.153464317E-3,1.326029003E-1,-8.543968201E-3
2.591824934E1,-3.113657236E-2,1.235255301E-1,-7.314014435E-2
2.593417951E1,-2.240097523E-2,1.049244404E-1,-2.758026123E-2
2.595020124E1,-8.471548557E-3,1.195116267E-1,-4.664134979E-2
2.596619245E1,1.826614141E-2,1.486570835E-1,2.989864349E-2
2.598215315E1,4.065406322E-2,1.575666368E-1,3.695201874E-2
2.599814436E1,2.780830860E-2,1.346235722E-1,-4.464149475E-2
2.601413557E1,1.205313206E-2,1.560158730E-1,4.142475128E-2
2.603012678E1,-2.393734455E-2,1.778671592E-1,5.468368530E-3
2.604606660E1,-3.815793991E-2,1.783880889E-1,-6.162071228E-2
2.606208833E1,1.001316309E-2,1.900653243E-1,1.012611389E-2
2.607811006E1,3.738015890E-2,2.039518803E-1,8.895111084E-2
2.609407075E1,3.587305546E-2,1.822239757E-1,9.596729279E-2
2.611009248E1,3.774547577E-2,1.608070284E-1,-3.349208832E-2
2.612608369E1,4.501640797E-3,1.309349537E-1,-1.940565109E-1
2.614204439E1,1.208901405E-3,1.231229752E-1,-3.599834442E-2
2.615803560E1,8.728384972E-3,1.533106714E-1,4.791355133E-2
2.617402681E1,1.842403412E-2,1.541841626E-1,9.825706482E-2
2.619001802E1,1.151740551E-2,1.411921084E-1,-7.075309753E-3
2.620597871E1,2.238756418E-2,1.680556238E-1,6.483650208E-2
2.622196992E1,2.776151896E-2,1.687972546E-1,-9.246826172E-3
2.623790010E1,2.396023273E-2,1.708201468E-1,-1.628875732E-2
2.625386079E1,1.350426674E-2,1.845709532E-1,-3.300380707E-2
2.626979097E1,-1.005840302E-2,1.568018943E-1,4.024505615E-4
2.628578218E1,7.443904877E-3,1.563483179E-1,1.949596405E-2
2.630174287E1,-1.660525799E-3,1.357186437E-1,2.241134644E-4
2.631776460E1,2.260929346E-2,1.251434684E-1,4.916191101E-3
2.633375581E1,-1.305222511E-3,1.296034455E-1,-1.908588409E-2
2.634968599E1,2.231246233E-2,1.518624574E-1,9.629249573E-3
2.636567720E1,-3.964662552E-3,1.570049375E-1,1.676368713E-2
2.638163789E1,-6.269872189E-3,1.522482038E-1,1.910305023E-2
2.639765962E1,-1.404881477E-3,1.429609209E-1,2.144718170E-2
2.641365083E1,6.235897541E-3,1.270608157E-1,-1.621246338E-4
2.642961153E1,6.472229958E-3,1.381700039E-1,-9.772300720E-3
2.644560274E1,5.532443523E-3,1.304921508E-1,-4.100418091E-2
2.646156343E1,1.543939114E-3,1.161014810E-1,-1.472091675E-2
2.647758516E1,1.112544537E-2,1.294842660E-1,4.750728607E-2
2.649357637E1,1.318341494E-2,1.293895841E-1,5.466270447E-2
2.650956758E1,3.033816814E-3,1.361745447E-1,2.112579346E-2
2.652555879E1,1.686614752E-2,1.604152024E-1,-2.676486969E-2
2.654151949E1,2.163439989E-2,1.580429077E-1,-3.389739990E-2
2.655754121E1,1.934868097E-2,1.512452960E-1,-7.513046265E-3
2.657353242E1,1.029652357E-2,1.609453708E-1,5.001354218E-2
2.658946260E1,-6.237328053E-3,1.407925487E-1,3.092384338E-2
2.660545381E1,8.631646633E-3,1.294783652E-1,2.172470093E-3
2.662141450E1,6.119906902E-3,1.495545208E-1,-9.820938110E-3
2.663743623E1,2.003979683E-2,1.512213349E-1,-1.459503174E-2
2.665342744E1,1.285839081E-2,1.267310083E-1,-3.136634827E-2
2.666938814E1,3.192842007E-3,1.422447115E-1,-2.613067627E-4
2.668534883E1,9.376406670E-4,1.281542480E-1,4.038715363E-2
2.670127901E1,5.846798420E-3,1.399718821E-1,-1.713371277E-2
2.671730074E1,1.198649406E-3,1.495515406E-1,1.962661743E-3
2.673329195E1,1.076740026E-2,1.492574215E-1,-1.245498657E-2
2.674925264E1,2.136349678E-2,1.675593704E-1,5.445194244E-2
2.676521333E1,4.400610924E-3,1.423137486E-1,5.423641205E-2
2.678117403E1,4.614591599E-3,1.298290491E-1,-2.978801727E-2
2.679719575E1,1.063406467E-3,1.150317863E-1,-9.452152252E-2
2.681318697E1,4.683375359E-3,1.243030578E-1,-1.183013916E-1
2.682917818E1,2.780336142E-2,1.678819060E-1,2.555465698E-2
2.684516939E1,4.239654541E-2,1.480359137E-1,2.458877563E-1
2.686113008E1,1.345324516E-2,1.256684661E-1,5.195426941E-2
2.687712129E1,-8.396327496E-3,1.222710758E-1,-1.515531540E-1
2.689302095E1,2.526390553E-2,1.540865898E-1,4.123687744E-3
2.690904268E1,-9.553432465E-3,1.690828800E-1,4.481506348E-2
2.692503389E1,-3.638064861E-2,1.712141931E-1,-1.729803085E-1
2.694099458E1,2.819103003E-2,2.010229826E-1,1.072702408E-1
2.695689424E1,5.130237341E-2,1.694637388E-1,2.867746353E-1
2.697288545E1,-1.541674137E-3,1.261898875E-1,-2.087116241E-1
2.698881563E1,5.447924137E-3,1.309093237E-1,-2.419576645E-1
2.700483736E1,3.367722034E-2,2.056885511E-1,1.868114471E-1
2.702079805E1,3.554189205E-2,2.168131024E-1,1.916704178E-1
2.703681978E1,2.647000551E-2,2.117147893E-1,1.031494141E-1
2.705278047E1,-1.834213734E-3,1.984216273E-1,2.460479736E-4
2.706871065E1,-4.540860653E-3,1.888881922E-1,-1.530132294E-1
2.708470186E1,-4.778194427E-2,1.454912424E-1,-1.553525925E-1
2.710066255E1,-2.428531647E-2,1.245039329E-1,-2.352046967E-2
2.711668428E1,-2.282261848E-3,1.096482500E-1,1.964282990E-2
2.713267549E1,2.487736940E-2,1.233889610E-1,1.273679733E-1
2.714866670E1,4.072290659E-2,1.536107063E-1,1.950931549E-2
2.716462740E1,7.096529007E-3,1.550625861E-1,-1.897144318E-2
2.718055757E1,1.609688997E-2,1.869708151E-1,-4.301643372E-2
2.719654878E1,-2.491474152E-5,2.245926112E-1,-5.498886108E-2
2.721253999E1,1.480227709E-2,2.463213652E-1,2.445220947E-3
2.722853120E1,1.814329624E-2,2.391242832E-1,6.457614899E-2
2.724452241E1,4.366779327E-2,2.439503372E-1,5.718040466E-2
2.726048311E1,2.239865065E-2,1.997799724E-1,1.383018494E-2
2.727644380E1,4.473412037E-2,1.577818245E-1,-3.418540955E-2
2.729240449E1,-3.526031971E-3,1.433572471E-1,-1.613121033E-1
2.730839571E1,2.106773853E-2,1.363760233E-1,3.726959229E-2
2.732438692E1,2.836614847E-2,1.505397558E-1,1.401128769E-1
2.734034761E1,7.345557213E-3,1.421002150E-1,5.137443542E-2
2.735636934E1,1.960903406E-2,1.561337709E-1,-1.817226410E-2
2.737233003E1,2.490127087E-2,1.766556948E-1,-9.951591492E-2
2.738832124E1,2.976292372E-2,1.683093309E-1,-1.793766022E-2
2.740431245E1,1.678407192E-2,1.644661576E-1,3.965187073E-2
2.742027315E1,-1.203852892E-2,1.350848079E-1,1.814270020E-2
2.743626436E1,-2.188611031E-2,1.596052349E-1,-3.421783447E-3
2.745219453E1,1.650202274E-2,1.620056331E-1,-2.027511597E-2
2.746821626E1,5.752086639E-3,1.715941131E-1,-3.959465027E-2
2.748420747E1,1.159745455E-2,1.522545964E-1,1.052665710E-2
2.750016817E1,1.253026724E-2,1.659868956E-1,5.584716797E-3
2.751618990E1,-5.158126354E-3,1.533831358E-1,5.399703979E-3
2.753215059E1,1.058340073E-3,1.433529854E-1,-1.632404327E-2
2.754814180E1,7.219374180E-3,1.623767018E-1,3.378963470E-2
2.756413301E1,1.805812120E-2,1.596807539E-1,2.507209778E-3
2.758009370E1,-4.926860332E-3,1.765582561E-1,-5.268955231E-2
2.759608491E1,7.915854454E-3,1.369690299E-1,-2.518653870E-3
2.761201509E1,2.460342646E-2,1.293607056E-1,-1.452445984E-2
2.762797578E1,1.013404131E-2,1.098863631E-1,1.657199860E-2
2.764393648E1,1.775151491E-2,1.310812831E-1,9.325027466E-3
2.765995821E1,-6.300985813E-3,1.354566813E-1,-1.946449280E-2
2.767591890E1,1.118344069E-2,1.387088299E-1,4.411697388E-3
2.769191011E1,1.389199495E-2,1.654894501E-1,6.733894348E-3
2.770784029E1,7.081151009E-3,1.440679580E-1,-2.686309814E-2
2.772383150E1,1.219725609E-2,1.656679213E-1,-3.651237488E-2
2.773979219E1,-1.610136032E-2,1.570252776E-1,-3.897571564E-2
2.775581392E1,2.392446995E-2,1.457714736E-1,5.200672150E-2
2.777180513E1,1.367676258E-2,1.457995921E-1,4.721546173E-2
2.778776582E1,1.431393623E-2,1.284611225E-1,2.318286896E-2
2.780375703E1,5.317986012E-3,1.441148818E-1,6.334304810E-3
2.781971773E1,1.319456100E-2,1.432231963E-1,2.539634705E-2
2.783573946E1,-7.076501846E-3,1.496037841E-1,-2.979469299E-2
2.785173067E1,-1.093506813E-3,1.473168731E-1,-3.229808807E-2
2.786766084E1,7.209956646E-3,1.486510783E-1,-1.802635193E-2
2.788365205E1,8.169651031E-3,1.500922590E-1,3.456306458E-2
2.789961275E1,1.395153999E-2,1.484295428E-1,2.729320526E-2
2.791563448E1,-1.107275486E-2,1.480903625E-1,3.675937653E-2
2.793162569E1,-1.371055841E-2,1.466233879E-1,1.504421234E-2
2.794755586E1,1.485800743E-2,1.450842619E-1,-9.065628052E-3
2.796354707E1,2.764105797E-3,1.320455521E-1,-9.063243866E-2
2.797950777E1,1.385188103E-2,1.518452764E-1,-1.003170013E-1
2.799552949E1,2.797609568E-2,1.533126533E-1,-4.764366150E-2
2.801152071E1,1.183664799E-2,1.797228605E-1,1.029968262E-1
2.802751192E1,1.839613914E-2,1.799938232E-1,1.914606094E-1
2.804347261E1,-7.689714432E-3,1.665502638E-1,-4.885673523E-3
2.805946382E1,-8.217990398E-3,1.506027579E-1,-1.197757721E-1
2.807542451E1,-8.055090904E-3,1.597269624E-1,3.344440460E-2
2.809141572E1,1.114606857E-4,1.542847157E-1,-4.083633423E-2
2.810737642E1,2.445232868E-2,1.643935144E-1,-1.126852036E-1
2.812336763E1,5.124115944E-2,1.995384693E-1,1.457128525E-1
2.813938936E1,9.928226471E-3,1.348187923E-1,7.617759705E-2
2.815535005E1,-1.937806606E-2,1.036671475E-1,-2.685422897E-1
2.817137178E1,-6.347894669E-5,1.503725052E-1,-8.180809021E-2
2.818739351E1,1.790690422E-2,2.121980637E-1,1.814756393E-1
2.820335420E1,3.386610746E-2,2.476277500E-1,1.670179367E-1
2.821931490E1,2.314656973E-2,2.453073859E-1,9.752655029E-2
2.823530611E1,7.698714733E-3,2.470635772E-1,-4.856586456E-2
2.825120576E1,-6.498694420E-3,2.242559493E-1,-5.106925964E-2
2.826722749E1,-2.719599009E-2,1.813312620E-1,-4.163932800E-2
2.828318819E1,-7.014536858E-2,1.478326619E-1,-4.414176941E-2
2.829920991E1,-2.474659681E-2,1.432591975E-1,-5.887985229E-3
2.831514009E1,1.119422913E-2,1.472731531E-1,2.038955688E-2
2.833113130E1,1.838928461E-2,1.589323878E-1,2.752113342E-2
2.834712251E1,2.306848764E-2,1.607754529E-1,1.073074341E-2
2.836308321E1,5.656003952E-3,1.537851393E-1,-3.714942932E-2
2.837907442E1,1.789188385E-2,1.757958382E-1,-5.927085876E-3
2.839509614E1,-4.982948303E-4,1.876741797E-1,-1.229286194E-3
2.841108736E1,1.216310263E-2,2.057074606E-1,5.887985229E-3
2.842704805E1,-1.889020205E-2,2.004526705E-1,-1.325988770E-2
2.844300874E1,2.488571405E-2,1.943265498E-1,6.588459015E-2
2.845893892E1,1.165103912E-2,1.458204538E-1,-7.287025452E-2
2.847493013E1,3.836274147E-3,1.219023615E-1,-9.439277649E-2
2.849089082E1,1.296055317E-2,1.272268891E-1,-4.414749146E-2
2.850688203E1,3.828829527E-2,1.567439586E-1,1.570320129E-2
2.852287324E1,-9.253144264E-3,1.633453667E-1,3.973102570E-2
2.853883394E1,-2.126747370E-2,1.586923152E-1,3.748035431E-2
2.855479463E1,1.221996546E-2,1.792716235E-1,2.089405060E-2
2.857078584E1,9.410262108E-3,1.521263421E-1,-2.851486206E-3
2.858674654E1,2.483820915E-2,1.549311876E-1,-1.219844818E-2
2.860273775E1,2.179425955E-2,1.329359710E-1,-4.077053070E-2
2.861875948E1,-2.636700869E-2,2.071633041E-1,-1.004962921E-1
2.863472017E1,1.104778051E-2,1.688367724E-1,2.403068542E-2
2.865068086E1,7.782638073E-3,1.544885486E-1,7.300376892E-3
2.866664156E1,1.638889313E-3,1.419232637E-1,2.174091339E-2
2.868260225E1,-2.545362711E-2,1.267124116E-1,-2.609252930E-2
2.869862398E1,-1.447063684E-2,1.361295581E-1,-4.519748688E-2
2.871458467E1,5.624294281E-4,1.535664201E-1,-3.554916382E-2
2.873057588E1,-1.056832075E-2,1.619898677E-1,-9.164810181E-3
2.874650606E1,1.843202114E-2,1.581545770E-1,3.402042389E-2
2.876249727E1,1.646882296E-2,1.604893804E-1,7.794380188E-3
2.877845796E1,2.913826704E-2,1.507379115E-1,-4.075050354E-3
2.879447969E1,2.240979671E-2,1.434628367E-1,-1.832485199E-2
2.881047090E1,1.303762197E-2,1.366552114E-1,-1.581382751E-2
2.882640108E1,8.097052574E-3,1.161386669E-1,-3.237915039E-2
2.884242280E1,1.141303778E-2,1.324740648E-1,-2.044868469E-2
2.885838350E1,1.099610329E-2,1.270208061E-1,-2.272605896E-2
2.887440523E1,-1.031994820E-3,1.497908533E-1,-1.782417297E-2
2.889039644E1,2.036952972E-2,1.432564259E-1,8.648872375E-3
2.890635713E1,1.078450680E-2,1.319122314E-1,-1.037311554E-2
2.892234834E1,-2.004194260E-2,1.370516121E-1,-3.064155579E-3
2.893830904E1,1.922249794E-3,1.427396536E-1,1.619052887E-2
2.895433076E1,1.656383276E-2,1.486260891E-1,1.869010925E-2
2.897032198E1,5.591571331E-3,1.327705085E-1,2.003669739E-3
2.898625215E1,1.662671566E-2,1.482231915E-1,-2.429103851E-2
2.900227388E1,1.741254330E-2,1.422621906E-1,-9.849548340E-3
2.901823457E1,8.639931679E-3,1.596958041E-1,1.179409027E-2
2.903425630E1,2.183794975E-3,1.434325576E-1,-2.401065826E-2
2.905024751E1,-4.605889320E-3,1.372242570E-1,-1.432132721E-2
2.906617769E1,-4.433572292E-3,1.457912624E-1,2.409839630E-2
2.908219942E1,1.528233290E-2,1.465426385E-1,-2.127838135E-2
2.909816011E1,2.336305380E-2,1.405925751E-1,-4.441261292E-3
2.911418184E1,-6.486356258E-3,1.293193102E-1,-1.872730255E-2
2.913017305E1,-1.190483570E-2,1.420969367E-1,-6.656169891E-2
2.914610322E1,-1.360303164E-2,1.244064271E-1,2.957344055E-3
2.916206392E1,-1.501238346E-2,1.270690560E-1,-7.842063904E-2
2.917799409E1,2.853095531E-3,1.379925311E-1,2.960205078E-3
2.919398530E1,3.235894442E-2,1.581634581E-1,-2.097225189E-2
2.920991548E1,2.100938559E-2,1.546175480E-1,1.060228348E-1
2.922590669E1,1.819503307E-2,1.248829067E-1,-2.780532837E-2
2.924183687E1,-3.016406298E-2,1.306548417E-1,-1.450386047E-1
2.925779756E1,3.627777100E-3,1.516489983E-1,-1.344585419E-2
2.927381929E1,-1.925826073E-4,1.534360647E-1,4.628562927E-2
2.928981050E1,-1.122909784E-2,1.332007945E-1,-1.070451736E-1
2.930574068E1,2.809119225E-2,1.963624358E-1,6.036567688E-2
2.932173189E1,4.454654455E-2,1.562848687E-1,1.513376236E-1
2.933769258E1,3.631234169E-3,1.107446551E-1,-2.099485397E-1
2.935371431E1,3.803610802E-3,9.842967987E-2,-2.266635895E-1
2.936967500E1,2.188891172E-2,1.876896024E-1,2.458000183E-2
2.938566621E1,6.515741348E-3,2.040270865E-1,1.275119781E-1
2.940165742E1,4.855209589E-2,2.356182039E-1,1.563739777E-1
2.941761812E1,4.087805748E-2,2.588374913E-1,7.281494141E-2
2.943357881E1,8.556842804E-4,2.316691875E-1,-4.662322998E-2
2.944953950E1,-1.252782345E-2,1.791819632E-1,-1.134386063E-1
2.946553072E1,-3.355193138E-2,1.567319930E-1,-8.221054077E-2
2.948146089E1,-2.646219730E-2,1.228081584E-1,-4.148769379E-2
2.949748262E1,-3.056991100E-2,1.500006020E-1,-4.395389557E-2
2.951344331E1,3.936529160E-3,1.503990293E-1,3.737735748E-2
2.952946504E1,1.744383574E-2,1.661945879E-1,2.775382996E-2
2.954539522E1,4.689407349E-2,1.633613706E-1,2.323627472E-2
2.956141695E1,-1.743221283E-2,2.013973892E-1,-1.478004456E-2
2.957737764E1,1.162940264E-2,1.988778114E-1,-2.519607544E-3
2.959339937E1,-1.865863800E-3,2.038419545E-1,-1.184368134E-2
2.960939058E1,-8.883893490E-3,2.129785120E-1,-1.165199280E-2
2.962538179E1,1.656961441E-2,2.262060046E-1,-1.788139343E-3
2.964134248E1,3.711235523E-2,1.581545472E-1,-6.280899048E-3
2.965727266E1,-4.408180714E-3,1.323786974E-1,-8.985805511E-2
2.967323335E1,2.551370859E-2,1.240347624E-1,-2.750778198E-2
2.968925508E1,1.651823521E-2,1.311970949E-1,-5.879402161E-3
2.970518526E1,1.453918219E-2,1.473400593E-1,1.818180084E-2
2.972117647E1,2.665328979E-2,1.388416290E-1,-1.995658875E-2
2.973713716E1,1.196259260E-2,1.420820355E-1,-5.384445190E-3
2.975315889E1,-1.443862915E-3,1.405833364E-1,2.121829987E-2
2.976911958E1,1.423817873E-2,1.274643242E-1,-9.675025940E-3
2.978504976E1,1.272916794E-3,1.364479065E-1,-5.735778809E-2
2.980104097E1,1.296484470E-2,1.535690725E-1,-1.414775848E-2
2.981700166E1,2.227127552E-2,1.513916254E-1,2.735137939E-3
2.983302339E1,5.804896355E-4,1.439621449E-1,-2.825069427E-2
2.984901460E1,-8.228421211E-3,1.438760757E-1,1.013851166E-2
2.986497530E1,-7.259786129E-3,1.198243499E-1,7.818222046E-3
2.988099702E1,-3.482484818E-2,1.107286811E-1,-3.045558929E-2
2.989698824E1,-9.897887707E-3,1.171580851E-1,-1.850128174E-2
2.991300996E1,1.894092560E-2,1.401460767E-1,-1.127529144E-2
2.992900117E1,-4.846274853E-3,1.458667517E-1,-1.120948792E-2
2.994490083E1,2.378845215E-2,1.503085494E-1,-1.094150543E-2
2.996089204E1,-1.335555315E-2,1.575374007E-1,3.358840942E-3
2.997685274E1,7.336378098E-3,1.543108225E-1,-1.571178436E-2
2.999287447E1,1.041913033E-2,1.254856586E-1,-3.956127167E-2
3.000886568E1,1.772719622E-2,1.380897760E-1,-5.957603455E-3
3.002485689E1,2.012199163E-2,1.342761517E-1,-3.222084045E-2
3.004081758E1,3.546774387E-3,1.497798562E-1,-2.019309998E-2
3.005677827E1,1.370912790E-2,1.456392407E-1,-2.731609344E-2
3.007280000E1,1.176869869E-2,1.362478137E-1,-8.869171143E-4
3.008876070E1,7.665395737E-3,1.340273619E-1,-2.474880219E-2
3.010469087E1,1.981252432E-2,1.268642545E-1,-7.872581482E-3
3.012068208E1,7.767677307E-3,1.506779790E-1,-2.928066254E-2
3.013664278E1,1.476395130E-2,1.481532454E-1,6.777763367E-3
3.015266450E1,8.211135864E-3,1.390271783E-1,3.318500519E-2
3.016865572E1,-5.433559418E-4,1.158783436E-1,-5.056953430E-2
3.018461641E1,2.657091618E-2,1.379770637E-1,1.892089844E-2
3.020057710E1,1.250249147E-2,1.454139948E-1,-6.477546692E-2
3.021650728E1,5.333185196E-3,1.409142613E-1,-1.917076111E-2
3.023249849E1,-8.684635162E-3,1.269188523E-1,-4.712104797E-3
3.024848970E1,-7.852911949E-4,1.326627135E-1,1.208686829E-2
3.026448091E1,5.294919014E-3,1.331979632E-1,-1.421451569E-2
3.028047212E1,6.861746311E-3,1.385816336E-1,-2.377510071E-2
3.029640230E1,1.168370247E-3,1.232110858E-1,-4.773998260E-2
3.031239351E1,-5.122125149E-3,1.255521178E-1,-6.454372406E-2
3.032835420E1,5.026340485E-3,1.426447034E-1,3.596401215E-2
3.034434541E1,1.960146427E-2,1.670622230E-1,7.436752319E-2
3.036036714E1,2.384006977E-3,1.296830773E-1,-1.637268066E-2
3.037632783E1,-7.529914379E-3,1.215353608E-1,-1.047496796E-1
3.039228853E1,1.193505526E-2,1.237573028E-1,-4.729557037E-2
3.040824922E1,1.429378986E-3,1.429630518E-1,3.881549835E-2
3.042424043E1,-6.741702557E-3,1.227298379E-1,-9.766769409E-2
3.044023164E1,4.937642813E-2,1.709780693E-1,1.177349091E-1
3.045619234E1,3.967565298E-2,1.685344577E-1,1.298513412E-1
3.047218355E1,2.574807405E-2,8.017051220E-2,-1.787738800E-1
3.048811372E1,-1.210343838E-2,6.791788340E-2,-1.980819702E-1
3.050410493E1,1.365286112E-2,1.522069573E-1,-2.160072327E-3
3.052003511E1,2.251833677E-2,1.677503586E-1,1.028928757E-1
3.053605684E1,3.734958172E-2,1.947343946E-1,9.325027466E-2
3.055201753E1,3.500109911E-2,2.137794495E-1,7.183361053E-2
3.056797822E1,2.221918106E-2,2.056682706E-1,-1.891994476E-2
3.058393892E1,-1.605176926E-2,1.655417085E-1,-7.614803314E-2
3.059993013E1,-2.620661259E-2,1.420702338E-1,-3.770256042E-2
3.061595186E1,-1.237791777E-2,1.113198996E-1,-2.332973480E-2
3.063191255E1,-6.461501122E-3,1.282236576E-1,-4.986858368E-2
3.064790376E1,1.836878061E-2,1.361836791E-1,2.173423767E-2
3.066383394E1,1.902037859E-2,1.433873177E-1,7.200241089E-3
3.067985567E1,1.258617640E-2,1.587702036E-1,-2.614974976E-2
3.069581636E1,-8.344352245E-3,1.530729532E-1,-4.450798035E-3
3.071183809E1,-4.961013794E-3,1.643366218E-1,-6.723403931E-3
3.072782930E1,-3.690981865E-2,1.728222966E-1,-3.773498535E-2
3.074375948E1,2.201932669E-2,2.113615274E-1,-4.034996033E-3
3.075975069E1,6.147980690E-3,1.886774898E-1,-5.880928040E-2
3.077571138E1,3.776264191E-2,1.869902611E-1,8.576393127E-3
3.079173311E1,-1.098525524E-2,1.192032099E-1,-8.694744110E-2
3.080772432E1,2.366089821E-2,1.142569184E-1,-4.854869843E-2
3.082368501E1,1.511961222E-2,1.199752688E-1,-7.814407349E-3
3.083964571E1,-8.243680000E-3,1.161623001E-1,2.336406708E-2
3.085557588E1,8.801281452E-3,1.548035145E-1,-5.259513855E-3
3.087156709E1,1.324176788E-2,1.477717161E-1,-4.102039337E-2
3.088755830E1,1.611322165E-2,1.364331841E-1,-4.900932312E-3
3.090354951E1,-7.709741592E-3,1.489199400E-1,1.687908173E-2
3.091954072E1,2.218133211E-2,1.261166930E-1,-9.315490723E-3
3.093547090E1,9.734511375E-3,1.302338243E-1,3.261566162E-4
3.095146211E1,6.475389004E-3,1.441948414E-1,2.791404724E-3
3.096742280E1,1.307499409E-2,1.367192268E-1,-4.343032837E-3
3.098341402E1,-2.045762539E-2,1.245378256E-1,-2.348327637E-2
3.099940523E1,-1.056331396E-2,1.295651197E-1,-9.149551392E-3
3.101536592E1,-3.646278381E-2,1.297241449E-1,-6.788253784E-3
3.103135713E1,5.094230175E-3,1.369452477E-1,-1.641178131E-2
3.104731782E1,-8.715987206E-4,1.374886036E-1,5.038261414E-3
3.106330904E1,-4.988789558E-3,1.472702622E-1,-1.895141602E-2
3.107930025E1,9.588241577E-3,1.331517100E-1,-9.401321411E-3
3.109526094E1,9.501099586E-3,1.456551552E-1,-3.097534180E-2
3.111119112E1,1.166248322E-2,1.320528984E-1,4.081630707E-2
3.112721284E1,1.922547817E-2,1.310768127E-1,-3.350925446E-2
3.114317354E1,2.451539040E-2,1.163785458E-1,7.041931152E-3
3.115913423E1,-1.620471478E-3,1.213666797E-1,-6.015968323E-2
3.117515596E1,7.965207100E-3,1.312295198E-1,-4.116630554E-2
3.119111665E1,8.885264397E-4,1.216756105E-1,1.853942871E-2
3.120710786E1,1.297521591E-2,1.102954149E-1,-5.586242676E-2
3.122306856E1,2.247089148E-2,1.138088703E-1,-1.057434082E-2
3.123902925E1,1.935040951E-2,1.319338679E-1,-2.512073517E-2
3.125505098E1,6.734907627E-3,1.116313934E-1,-1.572036743E-2
3.127101167E1,3.025680780E-2,1.154497862E-1,-1.831150055E-2
3.128700288E1,-1.969629526E-2,1.266689897E-1,-1.377010345E-2
3.130293306E1,2.415060997E-3,1.326309443E-1,-4.560470581E-3
3.131892427E1,-6.810426712E-3,1.202845573E-1,1.924991608E-2
3.133488496E1,2.200829983E-2,1.146460176E-1,1.184272766E-2
3.135090669E1,5.909264088E-3,1.207024455E-1,-3.149032593E-2
3.136692842E1,1.953244209E-3,1.132677794E-1,-7.009124756E-2
3.138291963E1,1.122510433E-2,1.240725517E-1,-8.152961731E-3
3.139884981E1,-2.484798431E-3,1.371721625E-1,-1.568889618E-2
3.141484102E1,-8.877456188E-3,1.327919960E-1,7.935523987E-3
3.143083223E1,-2.215802670E-3,1.242212653E-1,1.496505737E-2
3.144682344E1,1.786458492E-2,1.200577021E-1,-3.300094604E-2
3.146281465E1,9.472072124E-3,9.397846460E-2,-9.544944763E-2
3.147877534E1,-7.133483887E-4,1.151614785E-1,6.464385986E-2
3.149470552E1,6.376445293E-3,1.064255536E-1,2.126693726E-2
3.151069673E1,-1.567518711E-2,9.101608396E-2,-1.513977051E-1
3.152665742E1,4.843652248E-2,1.355690360E-1,1.019878387E-1
3.154264864E1,2.928411961E-2,1.004451811E-1,1.804542542E-2
3.155867036E1,1.500892639E-2,4.835444689E-2,-2.212677002E-1
3.157460054E1,2.769172192E-3,1.138503850E-1,-7.579994202E-2
3.159059175E1,2.795612812E-2,1.402959824E-1,1.012058258E-1
3.160658296E1,1.321154833E-2,1.835201681E-1,1.365051270E-1
3.162254366E1,5.187743902E-2,2.042562664E-1,1.052103043E-1
3.163850435E1,2.922344208E-2,1.910731494E-1,9.346961975E-3
3.165452608E1,-1.677215099E-2,1.413051188E-1,-1.200380325E-1
3.167048677E1,-4.440730810E-2,1.089960337E-1,-9.388828278E-2
3.168644746E1,-2.716958523E-2,7.527798414E-2,-5.826282501E-2
3.170237764E1,-4.807728529E-2,8.557954431E-2,3.660202026E-3
3.171836885E1,1.866221428E-3,8.073627949E-2,6.315422058E-2
3.173432954E1,4.571872950E-2,1.080406904E-1,5.561161041E-2
3.175035127E1,2.756470442E-2,1.346951723E-1,-1.407241821E-2
3.176634248E1,1.830077171E-2,1.379487216E-1,-2.857875824E-2
3.178233369E1,-3.384947777E-3,1.632197201E-1,-2.631473541E-2
3.179832490E1,-8.587837219E-3,1.806348562E-1,-1.682949066E-2
3.181422456E1,-3.235411644E-2,1.800457835E-1,7.036209106E-3
3.183015474E1,3.861844540E-3,1.685374081E-1,-9.757041931E-3
3.184617647E1,8.446991444E-3,1.614335179E-1,4.531764984E-2
3.186213716E1,1.674193144E-2,1.120971739E-1,-5.056381226E-3
3.187812837E1,1.285040379E-2,7.930833101E-2,-1.105642319E-1
3.189408907E1,2.886456251E-2,8.392098546E-2,-2.458572388E-2
3.191008028E1,2.461373806E-2,1.006083786E-1,3.512001038E-2
3.192601045E1,3.235894442E-2,1.112096012E-1,3.980827332E-2
3.194203218E1,8.725762367E-3,1.066920161E-1,8.625030518E-3
3.195799287E1,1.295816898E-2,1.261423528E-1,8.619308472E-3
