"Time (s)","Linear Acceleration x (m/s^2)","Linear Acceleration y (m/s^2)","Linear Acceleration z (m/s^2)"
3.756218800E-2,1.760381460E-1,-4.303732514E-2,2.458181381E-1
5.352288100E-2,1.990312636E-1,-4.034474492E-2,3.131427765E-1
6.951409200E-2,1.450809389E-1,-4.366114736E-2,1.583347321E-1
8.550530300E-2,6.715175509E-2,-5.841544271E-2,8.310604095E-2
1.014659960E-1,6.059911475E-2,-4.061225057E-2,-5.405616760E-2
1.174572070E-1,7.282222807E-2,-1.751968265E-2,-1.358127594E-1
1.334484180E-1,4.290350527E-2,3.398030996E-3,-1.766729355E-1
1.494091120E-1,-1.813869178E-2,-8.031487465E-3,-4.021358490E-2
1.654003230E-1,-4.562361538E-2,5.338340998E-3,6.509017944E-2
1.813915340E-1,-1.485684514E-2,2.083805203E-2,1.395435333E-1
1.973827440E-1,2.257785201E-2,2.379339933E-2,1.181755066E-1
2.133739550E-1,2.033754438E-2,-1.506835222E-3,4.391288757E-2
2.293346490E-1,-1.211419702E-3,-3.670871258E-2,8.916568756E-2
2.453258600E-1,-5.834738910E-2,-2.135843039E-2,-9.061431885E-2
2.613170710E-1,-1.494402140E-1,-2.384194732E-2,-3.761196136E-2
2.772472460E-1,-4.863412678E-2,2.901792526E-2,-2.054500580E-2
2.932384570E-1,8.167059720E-2,2.849990129E-2,4.900932312E-2
3.092601860E-1,5.571725219E-2,5.970656872E-3,7.757663727E-2
3.251903620E-1,-3.494326770E-2,-1.678442955E-2,1.789665222E-2
3.411510550E-1,-8.637799323E-2,-1.411646605E-2,9.470462799E-2
3.571422660E-1,-9.655277431E-2,4.077869654E-2,-6.551742554E-2
3.731334770E-1,-7.754553854E-2,3.666958213E-2,-6.059646606E-2
3.891552050E-1,3.771878779E-3,3.514602780E-2,-1.347856522E-1
4.051158990E-1,1.620174944E-2,2.472561598E-2,-4.150009155E-2
4.211071100E-1,-5.013024062E-2,5.830460787E-2,1.235809326E-1
4.370983210E-1,-6.830954552E-2,7.493260503E-2,8.286762238E-2
4.530590140E-1,-5.983234197E-2,7.160106301E-2,1.212959290E-1
4.690502250E-1,-1.541473716E-2,6.873986125E-2,1.334686279E-1
4.849804010E-1,1.331463456E-3,5.229964852E-2,1.313314438E-1
5.009716120E-1,3.071869910E-2,4.608526826E-2,-1.926136017E-2
5.169628230E-1,4.492096603E-2,6.815850735E-3,4.073524475E-2
5.329540340E-1,-1.582530886E-2,-2.356404066E-2,-1.187801361E-2
5.489452440E-1,-4.385373741E-2,-7.004418969E-2,-2.129669189E-1
5.649364550E-1,5.242228508E-4,-6.730446219E-2,-2.130966187E-1
5.809276660E-1,5.830985680E-2,-1.170369983E-2,-2.613048553E-1
5.968883600E-1,4.203929752E-2,2.392405272E-2,5.425262451E-2
6.128490530E-1,2.419707179E-2,6.777983904E-2,2.334156036E-1
6.288707820E-1,5.023799837E-3,8.284994960E-2,2.452907562E-1
6.448009570E-1,1.684822887E-2,6.504529715E-2,3.485870361E-2
6.607921680E-1,4.890872538E-2,2.958780527E-2,-1.491146088E-1
6.767833790E-1,3.929308057E-2,-1.661688089E-2,-1.392107010E-1
6.927745900E-1,2.728827298E-2,-1.398396492E-2,-1.055011749E-1
7.087963190E-1,3.783419728E-3,-2.058491111E-2,-3.119945526E-2
7.247264940E-1,-1.500552148E-2,1.227116585E-2,3.347587585E-2
7.407177050E-1,-2.917515486E-2,6.921845675E-2,8.617305756E-2
7.567089160E-1,-2.435828745E-2,1.062111557E-1,7.186412811E-2
7.726696100E-1,-6.444752216E-6,7.750537992E-2,6.239318848E-2
7.886303030E-1,8.449792862E-3,2.410683036E-2,7.690811157E-2
8.045604790E-1,-4.000020027E-2,-1.644200087E-2,2.924823761E-2
8.205516900E-1,-5.276685953E-2,-2.662658691E-2,-6.386852264E-2
8.365429010E-1,-6.360018253E-2,-3.160190582E-2,-9.475708008E-2
8.525035940E-1,-9.740133584E-2,-1.823467016E-2,-5.390739441E-2
8.684642870E-1,-2.164895087E-2,2.790647745E-2,-8.348464966E-3
8.844554980E-1,2.168565989E-3,3.414192796E-2,5.394172668E-2
9.004467090E-1,-6.704092026E-3,4.037702084E-2,8.033084869E-2
9.164379200E-1,-9.382814169E-4,4.161557555E-2,4.926967621E-2
9.324291310E-1,3.276333958E-2,2.592429519E-2,1.820850372E-2
9.483898250E-1,2.460445464E-2,2.723816037E-2,-3.302574158E-3
9.643810350E-1,1.845182478E-2,2.911388874E-3,-4.160881042E-2
9.803722460E-1,-1.331597567E-2,-2.071893215E-2,-7.036209106E-2
9.963634570E-1,6.172552705E-3,-4.605039954E-2,-9.434509277E-2
1.012324151E0,1.929570735E-2,-3.032967448E-2,-7.045078278E-2
1.028284844E0,1.776937395E-2,-5.057722330E-3,-3.219318390E-2
1.044276055E0,-1.735553145E-3,3.823632002E-2,-4.178428650E-2
1.060267266E0,-1.509387046E-2,3.494879603E-2,8.518218994E-3
1.076258477E0,-1.715949923E-2,5.713969469E-2,-1.776409149E-2
1.092249688E0,-1.881718636E-2,5.274528265E-2,-1.529884338E-2
1.108210381E0,-6.142595410E-2,7.231104374E-2,3.983688354E-2
1.124201592E0,-4.368337244E-2,4.990810156E-2,1.602935791E-2
1.140192803E0,1.625955105E-3,3.190788627E-2,-7.717800140E-2
1.156184014E0,-3.231100738E-2,5.046725273E-3,2.351188660E-2
1.172114190E0,-4.051427543E-2,-4.165351391E-3,-1.128730774E-1
1.188135918E0,4.109978676E-2,-2.302587032E-3,1.026315689E-1
1.204127129E0,6.803436577E-2,1.005014777E-2,9.076404572E-2
1.220118340E0,2.375250310E-2,4.475474358E-3,-4.066371918E-2
1.236079034E0,-1.766101271E-2,-1.970797777E-3,-1.720676422E-1
1.252039727E0,8.544579148E-3,-2.384552360E-2,-2.006931305E-1
1.268061455E0,5.015963316E-2,-1.070731878E-2,-1.313333511E-1
1.284052666E0,5.737110972E-3,4.914134741E-3,5.282783508E-2
1.300013360E0,-2.637887001E-2,3.638333082E-2,1.891536713E-1
1.315943535E0,-2.942582220E-2,7.191175222E-2,1.868867874E-1
1.331904229E0,-2.042379975E-2,1.043150723E-1,6.757831573E-2
1.347925957E0,2.624630928E-3,5.784609914E-2,-3.246021271E-2
1.363856133E0,1.393442601E-2,3.433620930E-2,-8.227825165E-2
1.379847344E0,3.497260809E-2,-4.899212718E-2,-5.799293518E-2
1.395838555E0,1.736479998E-2,-2.480328083E-2,-6.255149841E-2
1.411799248E0,-1.275662333E-2,-1.319605112E-2,-1.716613770E-4
1.427759942E0,-9.544998407E-3,-8.511543274E-4,2.146911621E-2
1.443751153E0,-1.077944785E-2,2.583968639E-2,1.677703857E-2
1.459711846E0,-3.763331473E-2,3.034901619E-2,1.930809021E-2
1.475703057E0,-3.326252848E-2,3.657346964E-2,5.120277405E-3
1.491663750E0,-2.739231288E-2,3.941237926E-3,2.923965454E-3
1.507624444E0,-2.121528238E-2,2.848780155E-2,-1.601028442E-2
1.523585137E0,-9.591966867E-3,1.290059090E-2,-4.693984985E-2
1.539545830E0,-5.057416856E-3,1.966339350E-2,-6.593990326E-2
1.555537041E0,4.367485642E-3,2.071744204E-2,1.171112061E-3
1.571497735E0,2.150125802E-3,3.437465429E-2,-1.315307617E-2
1.587458428E0,-5.312405527E-3,4.064655304E-2,1.259803772E-3
1.603449639E0,-1.874417067E-3,3.851020336E-2,2.770423889E-2
1.619440850E0,8.201465011E-3,3.596961498E-2,4.219436646E-2
1.635432061E0,2.268984914E-3,3.423583508E-2,3.509902954E-2
1.651392754E0,1.179905981E-2,2.337455750E-2,-2.696323395E-2
1.667383965E0,-4.718460143E-3,3.224790096E-3,-4.833602905E-2
1.683375176E0,1.109056175E-2,-1.826554537E-2,-1.469135284E-2
1.699366387E0,1.759242266E-2,-5.766630173E-3,6.958961487E-3
1.715357598E0,2.270884812E-3,-7.357597351E-4,-2.405071259E-2
1.731287774E0,-2.074597031E-2,-4.704654217E-3,-5.509567261E-2
1.747309502E0,-7.756039500E-3,1.406967640E-2,-1.917076111E-2
1.763300713E0,1.049871743E-2,9.905636311E-3,4.782390594E-2
1.779291924E0,-7.011935115E-3,2.858442068E-2,5.023956299E-2
1.795283135E0,4.508018494E-3,2.641129494E-2,-4.540538788E-2
1.811274346E0,-1.536597311E-2,3.411507607E-2,-5.966758728E-2
1.827235039E0,-2.211446315E-2,1.888817549E-2,-8.117961884E-2
1.843226250E0,2.676501870E-3,3.130632639E-2,6.243610382E-2
1.859217461E0,4.525019974E-2,5.787563324E-2,1.486101151E-1
1.875178155E0,2.697892860E-2,3.286468983E-2,2.669811249E-2
1.891138848E0,-2.662542462E-2,1.365494728E-2,-7.838344574E-2
1.907160576E0,-2.427006885E-2,-7.049441338E-4,-1.117763519E-1
1.923121270E0,-1.326746121E-2,-9.215891361E-3,-1.118459702E-1
1.939081963E0,-2.316328511E-2,4.623591900E-3,2.915859222E-2
1.955073174E0,-3.918150812E-2,5.583256483E-2,2.083921432E-1
1.971064385E0,-2.752458304E-2,5.418390036E-2,2.034339905E-1
1.987086114E0,-2.270165831E-2,7.695072889E-2,2.395439148E-2
2.003077325E0,-1.826117188E-2,4.300314188E-2,-8.121299744E-2
2.019038018E0,1.210922375E-2,-8.438289165E-3,-1.002874374E-1
2.034998711E0,3.974288702E-3,-5.325394869E-2,-7.637405396E-2
2.050959405E0,2.162002027E-3,-5.153745413E-2,-5.492210388E-2
2.066981133E0,-2.221157402E-2,-6.134831905E-2,-3.589725494E-2
2.082972344E0,7.278397679E-4,2.695918083E-3,-1.924896240E-2
2.098933037E0,-2.398581058E-2,4.444783926E-2,-7.344245911E-3
2.114863213E0,-9.418554604E-3,7.345932722E-2,4.531288147E-2
2.130854424E0,-8.508220315E-3,8.225315809E-2,-2.519607544E-3
2.146876153E0,6.340086460E-3,3.223443031E-2,-5.745887756E-2
2.162867364E0,2.586991340E-2,2.364677191E-2,-5.976867676E-2
2.178828057E0,4.589622840E-2,-3.437924385E-2,-7.409381866E-2
2.194788750E0,1.758586615E-2,-2.522188425E-2,-3.815364838E-2
2.210779961E0,-2.358921617E-2,-2.020716667E-2,-6.450653076E-2
2.226771172E0,-4.966221750E-3,1.603895426E-2,2.405548096E-2
2.242762383E0,-7.981792092E-3,4.229104519E-2,7.296562195E-3
2.258753594E0,1.143470407E-3,4.599976540E-2,9.750366211E-3
2.274744805E0,1.781806350E-4,4.681414366E-2,5.293273926E-2
2.290736016E0,1.735228673E-2,1.581972837E-2,4.826259613E-2
2.306757744E0,1.019503921E-2,-1.077872515E-2,5.178451538E-4
2.322687920E0,-1.105287671E-2,-2.992397547E-2,-4.484367371E-2
2.338679131E0,-3.905050457E-2,-4.311406612E-2,-6.872367859E-2
2.354670342E0,-2.554974332E-2,-4.828274250E-3,-4.085540771E-3
2.370631035E0,-1.147650555E-2,-2.189457417E-3,3.660011292E-2
2.386622246E0,-4.348721355E-3,2.359902859E-2,5.099773407E-2
2.402582940E0,-2.277858555E-3,9.859621525E-3,-3.030109406E-2
2.418574151E0,9.176705033E-3,6.160855293E-3,-6.135177612E-2
2.434595879E0,1.424340904E-2,-2.843141556E-3,-1.828861237E-2
2.450587090E0,9.302075952E-3,2.229517698E-2,3.910064697E-2
2.466578301E0,-1.042390987E-2,2.903574705E-2,1.996994019E-2
2.482508477E0,-3.493653610E-2,3.709006310E-2,-6.374073029E-2
2.498499688E0,-3.315660730E-2,2.181714773E-2,1.292514801E-2
2.514490899E0,-1.786740869E-2,1.400649548E-2,9.822845459E-4
2.530451592E0,-1.634474099E-2,2.778476477E-2,4.171466827E-2
2.546442803E0,4.165622965E-2,5.114591122E-2,1.135787964E-1
2.562434014E0,1.919803023E-2,-8.682489395E-3,-1.557064056E-2
2.578394707E0,-1.891499758E-2,-2.316844463E-2,-1.088047028E-1
2.594324883E0,-1.550149918E-2,-5.137193203E-2,-1.423625946E-1
2.610285576E0,-1.320101321E-3,-3.527051210E-2,-1.330366135E-1
2.626307305E0,-1.056865230E-2,-9.256243706E-3,-5.922412872E-2
2.642237481E0,-2.391353995E-2,3.198504448E-2,1.246795654E-1
2.658198174E0,-1.507184654E-2,6.918704510E-2,1.388387680E-1
2.674189385E0,1.237512007E-2,9.100687504E-2,-2.289772034E-3
2.690150078E0,5.214616656E-3,5.728667974E-2,-8.339977264E-2
2.706141289E0,-5.143389106E-3,-1.853466034E-3,-5.443191528E-2
2.722132500E0,-8.496101946E-3,-4.728913307E-2,5.556106567E-3
2.738062676E0,-3.579186648E-2,-3.210985661E-2,6.071281433E-2
2.754084405E0,-4.388990998E-2,-9.240567684E-3,5.837821960E-2
2.770045098E0,-4.008007795E-2,1.452982426E-2,3.683471680E-2
2.786036309E0,-2.146077901E-2,3.200775385E-2,2.721214294E-2
2.801966485E0,-2.079394087E-2,3.822427988E-2,2.713012695E-2
2.817957696E0,2.499196678E-3,3.672003746E-3,-1.124858856E-2
2.833948907E0,-1.547457278E-2,-1.710456610E-2,6.818771362E-4
2.849940117E0,5.063988268E-3,-3.379726410E-2,-6.635189056E-2
2.865900811E0,3.538007289E-2,-4.581964016E-2,-5.676174164E-2
2.881892022E0,-2.048060298E-3,-7.131934166E-3,-6.875038147E-2
2.897883233E0,-3.051713482E-2,3.739434481E-2,1.735782623E-2
2.913874444E0,-2.324900404E-2,8.010476828E-2,6.272983551E-2
2.929865655E0,-1.347092539E-2,8.162117004E-2,7.461166382E-2
2.945856866E0,-1.156874001E-3,8.704012632E-2,7.538795471E-3
2.961848076E0,2.723464370E-2,5.661916733E-2,-1.884174347E-2
2.977839287E0,3.355407342E-2,1.282697916E-2,-1.415729523E-2
2.993830498E0,1.301452518E-3,-2.524101734E-2,-4.741668701E-3
3.009760674E0,-1.689419150E-3,-3.449314833E-2,1.425075531E-2
3.025782403E0,-4.511698708E-2,-4.930227995E-2,-7.411956787E-3
3.041773614E0,-3.064280003E-2,-3.091812134E-2,-1.947689056E-2
3.057734307E0,-6.006136537E-3,-2.629709244E-2,-3.157138824E-2
3.073633965E0,2.306830138E-3,-1.588785648E-2,-3.653812408E-2
3.089594659E0,1.761211082E-2,2.686589956E-2,3.914833069E-3
3.105616387E0,-2.430428937E-2,1.026093960E-2,-1.144409180E-3
3.121607598E0,2.517677471E-2,1.763546467E-2,3.375053406E-3
3.137598809E0,-1.921228692E-2,2.001607418E-2,-5.673789978E-2
3.153559502E0,-1.441349089E-2,2.202838659E-2,5.270004272E-3
3.169550713E0,1.700587571E-3,2.882599831E-2,-2.849292755E-2
3.185572442E0,-4.216101393E-2,2.331215143E-2,9.589195251E-3
3.201533135E0,-3.045763448E-2,3.882926702E-2,5.728149414E-2
3.217493828E0,-3.942006826E-2,1.314866543E-2,-1.709747314E-2
3.233485039E0,-1.898726821E-2,1.152551174E-2,-2.683448792E-2
3.249476250E0,1.359653100E-2,6.186306477E-3,-2.944183350E-2
3.265497979E0,1.477363333E-2,-6.523728371E-4,-4.406642914E-2
3.281428155E0,1.306287199E-2,-2.131158113E-2,-3.717327118E-2
3.297419366E0,-5.562156439E-3,-3.192389011E-2,-5.903053284E-2
3.313410576E0,1.715486869E-2,-1.546767354E-2,-2.824497223E-2
3.329371270E0,-1.197959483E-2,-3.439456224E-3,4.084205627E-2
3.345331963E0,-2.484747022E-2,1.425257325E-2,6.930351257E-2
3.361323174E0,-2.649527043E-2,1.048025489E-2,-2.682685852E-3
3.377253350E0,-1.656679809E-2,3.525984287E-2,3.068351746E-2
3.393275078E0,-1.724110544E-2,1.261454821E-2,2.810859680E-2
3.409266289E0,2.994351462E-2,2.632737160E-4,-1.636428833E-1
3.425257500E0,6.063513458E-2,1.004362106E-2,-8.737659454E-2
3.441218194E0,-1.454783976E-2,-4.265129566E-2,7.019615173E-2
3.457178887E0,-4.142010957E-2,-5.603727698E-2,-4.270172119E-2
3.473170098E0,3.171904385E-2,-1.528960466E-2,-1.196269989E-1
3.489161309E0,7.842212915E-3,3.702044487E-3,-1.104402542E-1
3.505091485E0,-4.001981020E-2,7.085755467E-2,3.990173340E-2
3.521082696E0,-4.680746794E-2,9.485113621E-2,2.046289444E-1
3.537073907E0,-2.485060692E-2,1.019378304E-1,1.852149963E-1
3.553065117E0,-3.295145929E-3,7.463702559E-2,6.546783447E-2
3.569056328E0,-3.837731481E-2,-1.478075981E-3,-5.415916443E-2
3.585017022E0,-4.585073888E-2,-8.193460107E-2,-1.283254623E-1
3.601008233E0,5.722194910E-4,-7.064774632E-2,-1.523275375E-1
3.616999444E0,5.775690079E-5,-1.063958406E-1,-1.022272110E-1
3.632960137E0,-1.273948699E-2,-7.003444433E-2,-1.871299744E-2
3.648920830E0,-2.097641677E-2,-2.817893028E-2,5.759716034E-2
3.664942559E0,-2.677501738E-2,1.785078645E-2,2.619743347E-2
3.680933770E0,-3.518223763E-3,4.219758511E-2,-1.715850830E-2
3.696924981E0,-2.595575899E-2,5.920454860E-2,1.371669769E-2
3.712824639E0,-1.556728035E-2,2.722194791E-2,7.335758209E-2
3.728815850E0,1.159411669E-2,-2.142241597E-2,5.886268616E-2
3.744837578E0,6.324394047E-2,-4.571741819E-2,-5.851078033E-2
3.760767754E0,1.456588507E-5,-4.812279344E-2,-1.830749512E-1
3.776728448E0,-4.473909736E-2,-1.868253946E-2,-1.066370010E-1
3.792719659E0,-3.935998678E-2,1.830327511E-2,3.675174713E-2
3.808680352E0,9.030058980E-3,3.763130307E-2,9.877014160E-2
3.824671563E0,-3.198146820E-3,5.221167207E-2,9.621620178E-2
3.840662774E0,2.728174627E-2,3.816133738E-2,3.148269653E-2
3.856592950E0,8.132651448E-3,9.280353785E-3,-4.759502411E-2
3.872614678E0,-1.251384616E-2,-2.335587144E-2,-9.078025818E-2
3.888605889E0,-1.379588246E-2,-3.466132283E-2,-9.572124481E-2
3.904536065E0,-3.454550356E-2,-4.182946682E-2,-3.606891632E-2
3.920527276E0,-4.831787944E-2,-5.849665403E-2,-3.566741943E-4
3.936518487E0,-2.345822752E-2,-4.502560198E-2,3.299522400E-2
3.952479180E0,-5.441576242E-3,-8.703202009E-3,-7.834434509E-3
3.968439873E0,-9.050644934E-3,-1.466661692E-3,-3.428745270E-2
3.984461602E0,-6.082169712E-3,2.063855529E-2,-1.766204834E-2
4.000452813E0,-1.603507251E-2,9.906321764E-3,-1.542663574E-2
4.016413506E0,-2.321998030E-2,9.108573198E-3,2.750968933E-2
4.032343682E0,-3.165008873E-2,7.772877812E-3,2.737808228E-2
4.048334893E0,-2.006471157E-2,9.960532188E-4,-8.636474609E-3
4.064356621E0,-3.214463592E-2,-1.331403852E-2,-3.505992889E-2
4.080317315E0,-1.558881253E-2,3.667458892E-3,-3.275489807E-2
4.096278008E0,2.975121140E-3,-1.963853836E-2,-1.370143890E-2
4.112238701E0,1.723982394E-3,-7.441788912E-3,2.211666107E-2
4.128229912E0,-4.340261221E-4,-5.772411823E-3,1.245594025E-2
4.144251641E0,-8.207172155E-3,-1.199930906E-2,-1.193027496E-1
4.160181817E0,-3.640770912E-3,-7.532849908E-3,-1.122140884E-1
4.176142510E0,-1.510561258E-2,-2.223043144E-2,-3.333663940E-2
4.192133721E0,-2.448833734E-2,-1.547931135E-2,2.107458115E-1
4.208124932E0,-2.996204048E-2,4.669412971E-3,1.268758774E-1
4.224116143E0,-9.522259235E-3,-7.796868682E-3,4.307556152E-2
4.240107354E0,-5.710359663E-2,-2.044713497E-2,-3.242492676E-5
4.256098565E0,-3.289387375E-2,-1.255680621E-2,-1.485099792E-1
4.272089776E0,6.781777740E-2,6.240487099E-3,-2.012624741E-1
4.288050469E0,2.324307710E-2,-2.811862528E-2,1.002626419E-1
4.304041680E0,-3.525137156E-2,-6.841032207E-2,1.336421967E-1
4.319971856E0,2.310516685E-2,-5.532213300E-2,-1.537370682E-1
4.335963067E0,2.142752707E-2,-3.461614251E-3,-2.735023499E-1
4.351984795E0,-2.740961313E-2,2.690106630E-2,-1.347570419E-1
4.367976006E0,-3.394228220E-2,6.341862679E-2,1.763181686E-1
4.383967217E0,-2.946258336E-2,6.086070836E-2,3.485736847E-1
4.399958428E0,1.330919564E-3,5.704995990E-2,1.809644699E-1
4.415919121E0,-2.704092860E-2,-3.034770489E-3,-9.669589996E-2
4.431879815E0,-5.597349256E-2,-4.800958186E-2,-2.235336304E-1
4.447840508E0,-3.013511747E-2,-1.070872471E-1,-1.900310516E-1
4.463770684E0,-1.277670264E-3,-1.024846211E-1,-2.010250092E-2
4.479761895E0,8.876189590E-3,-8.747610450E-2,9.954643250E-2
4.495753106E0,-1.420646906E-2,-2.226197720E-2,4.924201965E-2
4.511744317E0,-6.038367748E-3,4.798029363E-2,-2.258205414E-2
4.527735528E0,-5.307988077E-2,4.441992939E-2,-5.131816864E-2
4.543726739E0,-2.037062496E-2,3.605512530E-2,-4.176425934E-2
4.559687432E0,6.037004292E-3,2.204646170E-2,4.918766022E-2
4.575678643E0,-2.578505874E-2,-4.652813077E-3,8.986282349E-2
4.591669854E0,2.786847204E-2,-3.852698207E-2,7.309341431E-2
4.607600030E0,3.844618797E-2,-4.861886799E-2,-7.772445679E-2
4.623621758E0,-3.731322289E-2,-2.920930833E-2,-1.639070511E-1
4.639612969E0,-4.432038963E-2,1.238080114E-2,1.261711121E-3
4.655573662E0,8.272603154E-4,4.577393830E-2,7.782745361E-2
4.671503838E0,-1.646932960E-2,5.126314610E-2,5.145549774E-2
4.687495049E0,-1.036633551E-2,2.395673841E-2,-5.152225494E-2
4.703516778E0,-6.844051182E-3,1.774229109E-3,-8.985996246E-2
4.719446953E0,-9.667016566E-3,-3.772307187E-2,-7.792663574E-2
4.735438164E0,-9.431876242E-3,-6.154180318E-2,8.228302002E-3
4.751429375E0,-4.859043658E-2,-5.483886972E-2,6.328010559E-2
4.767390069E0,-2.503871918E-2,-3.619919345E-2,5.371379852E-2
4.783381280E0,-1.158169657E-2,-1.265943795E-2,-2.527236938E-2
4.799341973E0,-3.467833996E-2,-2.054292709E-2,-7.553482056E-2
4.815302666E0,-1.535357535E-2,-3.075584769E-3,-1.568412781E-2
4.831293877E0,-1.995928586E-2,1.673462242E-2,2.021026611E-2
4.847254571E0,-6.063431501E-4,1.398054510E-2,-4.444503784E-2
4.863184746E0,-5.437999964E-3,1.285036653E-2,-7.797336578E-2
4.879175957E0,-3.933355212E-2,-1.467163116E-2,-2.293491364E-2
4.895167168E0,-2.491320670E-2,-2.025420591E-2,8.238601685E-2
4.911158379E0,-1.664042473E-3,3.380354494E-3,6.084823608E-2
4.927119073E0,7.401198149E-3,-4.091039300E-3,-4.686450958E-2
4.943049248E0,-1.131936908E-2,-1.935453340E-2,-8.037185669E-2
4.959040459E0,-1.468187571E-2,-2.880479209E-2,-1.785488129E-1
4.975031670E0,1.378577203E-2,-1.891542226E-2,-1.761732101E-1
4.991022881E0,-3.339934349E-2,-2.352783829E-2,-4.450988770E-2
5.006953057E0,-4.937061667E-2,-2.607554942E-2,9.673690796E-2
5.022974785E0,-1.618422568E-2,-2.243115567E-2,1.374282837E-1
5.038965996E0,-2.542528510E-2,2.181820199E-2,2.044553757E-1
5.054926690E0,-5.224852264E-2,3.139272332E-2,1.493892670E-1
5.070856866E0,8.664035052E-2,4.957173765E-2,-1.713838577E-1
5.086817559E0,2.276012301E-2,1.789194345E-2,-1.809597015E-2
5.102839287E0,-4.579818249E-2,-5.314374343E-2,1.566877365E-1
5.118830498E0,-3.108648956E-2,-7.058812678E-2,-8.993721008E-2
5.134791192E0,1.922675222E-2,-4.437493533E-2,-3.533287048E-1
5.150721367E0,-1.150399446E-3,-5.239795893E-3,-1.546621323E-1
5.166712578E0,-6.363595277E-2,2.731595561E-2,1.972208023E-1
5.182734307E0,-7.834196836E-2,5.988141894E-2,2.881574631E-1
5.198664483E0,-1.168022305E-2,8.586703241E-2,1.732320786E-1
5.214625176E0,-3.095655143E-2,4.137020558E-2,-2.457275391E-1
5.230616387E0,-3.412422538E-2,-4.014381021E-2,-3.055658340E-1
5.246577080E0,-4.410535097E-3,-1.158652753E-1,-1.763019562E-1
5.262537774E0,1.454213262E-2,-1.281813681E-1,-2.309703827E-2
5.278528985E0,3.768213093E-3,-8.540974557E-2,8.942508698E-2
5.294459160E0,-2.766840905E-2,-7.617212832E-4,1.445131302E-1
5.310450371E0,-3.292648494E-2,5.553997681E-2,1.206111908E-1
5.326441582E0,-3.325313330E-3,9.932973981E-2,8.127212524E-3
5.342432793E0,1.132890582E-3,7.687515765E-2,-1.163444519E-1
5.358393487E0,-1.358985901E-2,3.403842449E-3,-5.887889862E-2
5.374354180E0,-9.605608881E-3,-3.128541261E-2,1.326408386E-1
5.390345391E0,-3.973771632E-2,-5.265180022E-2,1.469869614E-1
5.406306084E0,1.691787690E-2,-4.365710169E-2,3.686141968E-2
5.422266778E0,-1.826718450E-3,-3.078034893E-2,-2.775192261E-2
5.438257989E0,-4.143033177E-2,5.282729864E-3,-5.884933472E-2
5.454249200E0,-4.074784368E-2,2.009256929E-2,-7.081317902E-2
5.470240410E0,2.778418362E-3,2.287029475E-2,-1.576042175E-2
5.486201104E0,1.495453715E-2,-1.191033795E-2,-1.099205017E-2
5.502131280E0,2.194714546E-2,-1.838413626E-2,-9.002017975E-2
5.518122491E0,-7.310472429E-3,-2.001170069E-2,-8.525562286E-2
5.534113701E0,-2.862109989E-2,-2.614260465E-2,-2.062892914E-2
5.550074395E0,-1.579543948E-2,-2.137836814E-2,2.725601196E-2
5.566035088E0,-2.722015977E-2,-9.905163199E-3,4.881191254E-2
5.582056817E0,-2.257531881E-2,1.066498086E-2,4.164505005E-2
5.598048028E0,-2.567671239E-2,1.785811409E-2,2.011489868E-2
5.614008721E0,-2.654203027E-2,2.318641171E-2,-1.339054108E-2
5.629938897E0,-2.466132492E-2,1.178426668E-2,-1.414299011E-3
5.645930108E0,-1.028335840E-2,9.331855923E-3,3.375053406E-3
5.661951836E0,-9.771764278E-3,-1.256909221E-3,-7.563591003E-2
5.677943047E0,-2.282162011E-2,-1.777075231E-2,-6.127071381E-2
5.693903741E0,-3.647553921E-2,-2.479179017E-2,7.760524750E-2
5.709864434E0,-2.786730230E-2,-2.424262464E-3,2.093009949E-1
5.725855645E0,2.080250531E-2,-1.839201897E-3,1.111907959E-1
5.741877373E0,4.041403532E-3,7.800936699E-3,-1.377449036E-1
5.757868584E0,1.988410950E-3,-2.625063062E-3,-2.406721115E-1
5.773829278E0,-2.322581410E-2,-1.315395162E-2,-1.353540421E-1
5.789759453E0,-1.271209121E-2,-1.497701928E-2,-1.569557190E-2
5.805750664E0,-1.626382768E-2,-1.194605604E-2,6.326866150E-2
5.821772393E0,-1.726756990E-2,1.288355887E-2,8.478736877E-2
5.837763604E0,-2.983905375E-2,1.051002368E-2,9.196090698E-2
5.853754815E0,-2.021558583E-2,8.051652461E-3,-1.815891266E-2
5.869715508E0,-2.019144595E-2,1.915787905E-2,-1.306695938E-1
5.885706719E0,-1.099590957E-2,1.536621153E-2,-1.761569977E-1
5.901728448E0,-3.955774009E-2,-6.437946111E-3,-1.336002350E-2
5.917689141E0,-3.144466877E-2,-8.325695992E-3,1.422605515E-1
5.933649834E0,-2.569738030E-2,-8.190464228E-3,1.614265442E-1
5.949580010E0,-2.070753276E-2,2.196345106E-2,9.440898895E-2
5.965571221E0,-7.435624301E-2,1.459586993E-2,1.302051544E-2
5.981592950E0,2.053864300E-2,-1.451030374E-3,-2.838478088E-1
5.997584160E0,2.364751697E-2,-4.764772952E-3,-1.617431641E-1
6.013544854E0,-4.607191682E-2,-7.953733206E-2,2.739601135E-1
6.029505547E0,-4.573066533E-2,-9.862028807E-2,1.470270157E-1
6.045496758E0,2.672701329E-2,-1.546381786E-2,-2.312641144E-1
6.061487969E0,2.708435804E-2,9.626641870E-3,-3.461742401E-1
6.077448662E0,-4.332514107E-2,5.834529921E-2,-4.930496216E-2
6.093439873E0,-5.608659983E-2,9.157928079E-2,2.810735703E-1
6.109400567E0,-1.621404290E-2,1.232227832E-1,3.169965744E-1
6.125330742E0,-5.718037486E-3,6.443841755E-2,6.803703308E-2
6.141352471E0,-1.655425131E-2,-1.426281035E-2,-1.905078888E-1
6.157343682E0,-2.204154432E-2,-9.889346361E-2,-2.192478180E-1
6.173304375E0,4.598945379E-4,-1.224951744E-1,-2.025098801E-1
6.189265069E0,6.210982800E-3,-1.160201430E-1,-8.589744568E-3
6.205256280E0,-1.569992304E-2,-2.364676073E-2,9.915637970E-2
6.221247491E0,-2.594821155E-2,3.649755940E-2,6.565952301E-2
6.237269219E0,-2.234986424E-2,7.197926193E-2,3.935337067E-2
6.253229912E0,-1.159070432E-2,4.205584154E-2,5.870819092E-3
6.269221123E0,-1.462474465E-2,1.081898436E-2,1.121520996E-3
6.285181817E0,9.514376521E-3,7.124610245E-3,8.348464966E-3
6.301173028E0,-5.811348557E-3,-1.619110256E-2,-1.316833496E-2
6.317164239E0,2.091109753E-2,-2.106793225E-3,-1.137018204E-1
6.333155450E0,1.856148243E-3,3.928914666E-3,-8.256912231E-2
6.349116143E0,-3.625537455E-2,-3.710687160E-4,1.319980621E-2
6.365107354E0,-2.330215275E-2,3.808158636E-2,3.954887390E-2
6.381129082E0,-2.252419293E-2,4.415565729E-2,4.435539246E-2
6.397059258E0,-1.940563321E-2,1.748315990E-2,9.945201874E-2
6.413050469E0,-1.688304543E-2,-1.086719334E-2,1.329421997E-2
6.429041680E0,-5.356103182E-3,-1.320568472E-2,-7.286834717E-2
6.445032891E0,-8.147776127E-3,-3.042933717E-2,-7.285022736E-2
6.461024102E0,-2.196945250E-2,-3.576212376E-2,-3.213596344E-2
6.476984795E0,-6.087899208E-3,-3.745863214E-2,-5.784034729E-3
6.492945489E0,-3.056190908E-2,-2.076693624E-2,1.427650452E-3
6.508936700E0,9.449109435E-3,1.141565293E-2,-8.112907410E-3
6.524927910E0,-2.280847728E-2,4.438243806E-3,-3.201675415E-2
6.540919121E0,-3.894430399E-2,1.641254127E-2,-5.651473999E-3
6.556910332E0,-3.382372856E-2,2.807260305E-2,-1.280307770E-2
6.572901543E0,-2.171182632E-2,1.303033531E-2,-4.150390625E-2
6.588862237E0,-1.891347766E-2,1.956702769E-2,-4.625701904E-2
6.604853448E0,-2.543589473E-2,1.959498972E-2,-2.946472168E-2
6.620875176E0,-7.999345660E-3,1.487421244E-2,8.877754211E-3
6.636805352E0,-2.893921733E-2,2.876795828E-2,1.131153107E-2
6.652796563E0,-2.462923527E-3,1.542695612E-2,1.135349274E-2
6.668787774E0,1.186299324E-2,1.054838300E-3,2.816581726E-2
6.684748467E0,-2.678655088E-2,2.570077777E-4,1.146602631E-2
6.700678643E0,-3.417301178E-2,-5.745321512E-3,-1.240634918E-2
6.716669854E0,-2.700155973E-2,-6.717145443E-3,-3.388023376E-2
6.732661065E0,-3.642855585E-2,-6.641849875E-3,-5.775737762E-2
6.748652276E0,-2.419994771E-2,1.865206659E-2,-3.855228424E-2
6.764612969E0,-2.638369799E-3,4.759401083E-3,-9.759902954E-3
6.780573662E0,-1.464693248E-2,-6.355285645E-3,-2.170944214E-2
6.796564873E0,-7.299974561E-3,4.869431257E-3,-4.560184479E-2
6.812556084E0,-2.416497469E-2,1.144133508E-2,-5.034637451E-2
6.828547295E0,-2.467371523E-2,8.433669806E-3,2.364158630E-3
6.844477471E0,9.312778711E-4,3.593902290E-2,3.592777252E-2
6.860499200E0,-1.163809001E-2,3.331600130E-2,4.557609558E-2
6.876490410E0,-2.167847753E-2,1.021426916E-2,2.891635895E-2
6.892481621E0,-3.139621019E-2,2.246119082E-2,-1.166820526E-2
6.908472832E0,-1.672011614E-2,1.318806410E-2,-2.829933167E-2
6.924464043E0,-9.038895369E-3,6.796419621E-5,-8.324623108E-2
6.940424737E0,-1.185809076E-2,-6.611913443E-3,-1.118993759E-1
6.956415948E0,-6.250590086E-4,3.637373447E-4,-1.501674652E-1
6.972407159E0,-9.797364473E-4,1.954317093E-3,-3.763008118E-2
6.988398369E0,-2.776342630E-2,8.427426219E-3,1.132125854E-1
7.004328545E0,-4.059103131E-2,6.658717990E-3,1.587724686E-1
7.020350274E0,-2.981232107E-2,1.217894256E-2,6.556415558E-2
7.036341485E0,-5.320176482E-2,1.520992815E-2,-8.436203003E-3
7.052302178E0,-1.749867201E-2,1.457537711E-2,-1.375274658E-1
7.068232354E0,3.172542155E-2,3.944678605E-2,-1.517601013E-1
7.084193047E0,7.236763835E-3,2.594073117E-2,9.247875214E-2
7.100214776E0,-3.098802269E-2,-2.714316547E-2,1.332149506E-1
7.116205987E0,-9.151905775E-3,-4.371504486E-2,-1.276092529E-1
7.132166680E0,1.265516877E-2,-1.605184376E-2,-2.782897949E-1
7.148127373E0,-2.770461142E-2,7.381737232E-4,-2.112483978E-1
7.164118584E0,-6.940686703E-2,4.329527915E-2,1.190280914E-1
7.180140313E0,-5.163481832E-2,8.687776327E-2,2.075223923E-1
7.196131524E0,-2.111808956E-2,8.659228683E-2,2.267961502E-1
7.212092217E0,-1.424086094E-2,5.615675449E-2,-1.712226868E-2
7.228022393E0,-1.792840660E-2,-9.964585304E-3,-9.817314148E-2
7.244013604E0,-1.563821733E-2,-5.764590204E-2,-1.098394394E-1
7.260035332E0,-1.309803128E-2,-7.125850022E-2,-9.045219421E-2
7.276026543E0,-1.948463917E-2,-4.855611920E-2,-5.916500092E-2
7.291987237E0,-2.797761559E-2,-6.986856461E-4,2.716064453E-2
7.307947930E0,-4.777921736E-2,4.004478455E-2,2.011775970E-2
7.323939141E0,-3.582117707E-2,7.262364030E-2,-8.428573608E-3
7.339930352E0,-1.601736248E-2,5.519869924E-2,-4.654884338E-2
7.355891045E0,-3.034636378E-3,2.668967843E-2,-5.682945251E-3
7.371882256E0,9.546883404E-3,2.513784170E-2,4.234218597E-2
7.387873467E0,-2.809420228E-3,-5.966573954E-3,2.095127106E-2
7.403864678E0,1.832342148E-2,-9.439080954E-3,-9.137916565E-2
7.419916924E0,1.118817180E-2,-7.376700640E-3,-1.630239487E-1
7.435847100E0,-2.242332697E-2,-1.297491789E-2,-9.108448029E-2
7.451838311E0,-2.295777202E-2,2.355912328E-2,1.910591125E-2
7.467829522E0,-2.369124442E-2,6.633973122E-2,7.665538788E-2
7.483790215E0,-3.283895552E-3,5.884158611E-2,8.161544800E-2
7.499750909E0,4.562407732E-3,6.390011311E-2,1.481246948E-2
7.515742119E0,2.540588379E-3,4.236578941E-2,-4.958534241E-2
7.531672295E0,-1.418655366E-2,1.252767444E-2,-7.572364807E-2
7.547694024E0,-1.388005167E-2,-1.107177138E-2,-5.163288116E-2
7.563685235E0,-1.511479169E-2,-1.441127062E-2,-3.236198425E-2
7.579676446E0,-2.994141728E-2,-5.176365376E-4,-1.788806915E-2
7.595606621E0,-2.768799663E-2,1.019686460E-2,-8.166313171E-3
7.611597832E0,-3.283769637E-2,5.884051323E-3,-4.630374908E-2
7.627589043E0,-3.587844968E-2,4.004150629E-3,-2.937602997E-2
7.643580254E0,-2.747271955E-2,4.559546709E-3,4.304885864E-3
7.659571465E0,-2.922980487E-2,2.447724342E-2,-2.896499634E-2
7.675562676E0,-1.035645604E-3,4.881301522E-2,-2.888679504E-2
7.691523369E0,-1.362911612E-2,3.288945556E-2,-4.787921906E-2
7.707423028E0,-2.375230938E-2,3.148603439E-2,-4.293346405E-2
7.723414239E0,-1.237600297E-2,2.049350739E-2,-6.861686707E-3
7.739435967E0,-3.226029128E-2,2.372497320E-2,-1.627254486E-2
7.755366143E0,-5.995482206E-5,1.223605871E-2,-8.913993835E-3
7.771326836E0,-2.567362040E-2,1.701086760E-2,-8.716583252E-3
7.787318047E0,-1.278813183E-2,1.680070162E-2,1.070022583E-3
7.803278741E0,-2.120822668E-2,6.825149059E-3,-1.785945892E-2
7.819239434E0,-7.867649198E-3,6.733685732E-3,-1.525020599E-2
7.835230645E0,-1.612666994E-2,1.379120350E-2,-2.460861206E-2
7.851221856E0,-1.022122055E-2,-2.877235413E-3,-4.115772247E-2
7.867213067E0,-1.169046760E-2,5.111664534E-3,-3.140640259E-2
7.883173760E0,6.123796105E-3,1.361089945E-2,-4.322433472E-2
7.899134453E0,-1.446818560E-2,8.038252592E-3,-4.787254333E-2
7.915125664E0,-8.509121835E-3,4.663914442E-3,1.640319824E-4
7.931055840E0,-1.930061728E-2,1.745563745E-2,1.950263977E-2
7.947047051E0,-1.760991663E-2,1.740068197E-2,5.564880371E-2
7.963007744E0,8.521318436E-3,2.841532230E-2,1.283836365E-2
7.978968438E0,1.304028183E-2,1.980277896E-2,-6.585693359E-2
7.994990166E0,-1.609911770E-2,9.939670563E-3,-1.637620926E-1
8.010981377E0,4.689544439E-4,2.975344658E-3,-1.373157501E-1
8.026972588E0,-1.867502928E-3,5.371332169E-3,2.549076080E-2
8.042963799E0,-1.996688545E-3,2.313703299E-2,1.117534637E-1
8.058955010E0,-1.959383488E-2,1.542872190E-2,1.146507263E-2
8.074946221E0,-4.668973386E-2,2.039009333E-2,-7.675647736E-2
8.090906914E0,-4.836683720E-2,2.177047729E-2,-4.294204712E-2
8.106867608E0,-3.108012676E-2,1.786023378E-2,-8.105468750E-2
8.122828301E0,3.617086262E-2,4.495269060E-2,6.508255005E-2
8.138819512E0,3.071755916E-2,3.552711010E-2,1.035060883E-1
8.154780205E0,-6.904900074E-4,1.184642315E-3,1.281166077E-2
8.170771416E0,-4.866644740E-3,-2.968609333E-3,-2.310485840E-1
8.186793145E0,4.635930061E-3,-2.939426899E-2,-2.787933350E-1
8.202753838E0,-2.186854184E-2,-9.706795216E-3,-1.017885208E-1
8.218684014E0,-5.234900862E-2,4.433417320E-2,2.474975586E-2
8.234675225E0,-4.175839573E-2,7.709389925E-2,2.136602402E-1
8.250666436E0,-1.261512935E-2,1.036981940E-1,1.682891846E-1
8.266657647E0,-2.583833039E-2,6.917083263E-2,1.312828064E-2
8.282587823E0,-1.595079899E-2,3.235703707E-2,-8.444118500E-2
8.298609551E0,-1.913686097E-2,-1.480966806E-2,-1.198530197E-1
8.314600762E0,-7.574036717E-4,-4.489690065E-2,-1.123189926E-1
8.330561455E0,-1.811867207E-2,-4.838979244E-2,-6.423473358E-2
8.346491631E0,-2.844745666E-2,-2.886652946E-2,7.703781128E-3
8.362452325E0,-2.421496063E-2,5.067586899E-4,3.014564514E-3
8.378474053E0,-1.992334425E-2,3.653305769E-2,7.514953613E-4
8.394465264E0,-3.223983198E-2,4.589033127E-2,-3.261375427E-2
8.410425957E0,-2.758054435E-2,5.025064945E-2,-2.286911011E-2
8.426386651E0,-1.829262078E-2,3.767937422E-2,-2.987384796E-2
8.442377862E0,-3.104141355E-2,2.227598429E-2,5.891323090E-2
8.458399590E0,9.906403720E-3,2.225089073E-2,-3.895378113E-2
8.474390801E0,1.854233444E-2,1.277554035E-2,-9.132862091E-2
8.490351494E0,-2.114923298E-2,2.665519714E-3,-9.832382202E-2
8.506281670E0,-8.506633341E-3,1.345282793E-2,-4.796600342E-2
8.522272881E0,-2.303028107E-2,3.429830074E-2,-2.434730530E-3
8.538294610E0,-2.156551927E-2,4.497802258E-2,9.609222412E-3
8.554255303E0,-1.658573747E-3,5.159914494E-2,1.457023621E-2
8.570215996E0,8.570313454E-3,4.089522362E-2,-1.155853271E-2
8.586176690E0,9.375162423E-3,1.120692492E-2,-2.093505859E-2
8.602167901E0,-3.948040307E-3,5.843758583E-3,-5.427551270E-2
8.618189629E0,-3.392052650E-2,-1.419961452E-3,-7.088565826E-2
8.634119805E0,-1.571030915E-2,-1.281344891E-2,-6.119918823E-2
8.650080498E0,-9.260259569E-3,9.630918503E-3,-5.392646790E-2
8.666071709E0,-1.927459985E-2,3.587186337E-3,-4.187679291E-2
8.682062920E0,-1.723469049E-2,1.208335161E-2,-2.505111694E-2
8.698084649E0,-5.625531077E-3,3.237098455E-2,-1.539516449E-2
8.714014825E0,-3.217812628E-2,2.088099718E-2,-2.963829041E-2
8.730006035E0,-1.288472861E-2,2.863681316E-2,-5.106639862E-2
8.745966729E0,-1.799581945E-2,3.173589706E-2,-3.180599213E-2
8.761988457E0,-2.354511619E-2,2.574038506E-2,-5.088520050E-2
8.778010186E0,-3.615646064E-2,2.201354504E-2,-1.488971710E-2
8.793940362E0,-1.994032413E-2,6.266891956E-3,-1.240921021E-2
8.809931573E0,-1.549487188E-2,2.379274368E-2,-7.515907288E-3
8.825892266E0,-1.356537268E-2,1.965761185E-2,-1.458740234E-2
8.841883477E0,-1.385156438E-2,2.969968319E-2,-3.840446472E-2
8.857905205E0,-6.766878068E-3,-1.081049442E-3,-3.348064423E-2
8.873835381E0,-1.405164972E-2,1.145893335E-2,-3.336048126E-2
8.889796075E0,-9.503107518E-3,9.950995445E-3,-4.523277283E-2
8.905787285E0,-9.744554758E-3,5.930006504E-3,-1.400184631E-2
8.921778496E0,-1.711867377E-2,2.566212416E-2,-4.304885864E-3
8.937769707E0,-9.851727635E-3,1.653826237E-2,-1.779556274E-3
8.953699883E0,-1.003034040E-2,1.177847385E-2,-4.232311249E-2
8.969691094E0,-2.492183447E-2,9.773790836E-3,-1.044406891E-1
8.985682305E0,-2.983546257E-2,4.341781139E-3,-8.524513245E-2
9.001673516E0,-1.508877799E-2,9.582817554E-3,2.246665955E-2
9.017603692E0,-5.122028291E-3,1.191377640E-2,4.162693024E-2
9.033594903E0,-2.412471175E-2,3.354108334E-2,-3.705978394E-3
9.049555596E0,-1.649880782E-2,2.786302567E-2,-9.206485748E-2
9.065485772E0,-1.348381862E-2,1.644939184E-2,-6.559944153E-2
9.081476983E0,-4.719734937E-2,2.286046743E-2,-2.245235443E-2
9.097468194E0,3.858886659E-3,2.275329828E-2,6.290435791E-3
9.113459405E0,4.052449763E-2,3.502815962E-2,8.528327942E-2
9.129450616E0,1.512237638E-2,1.613783836E-2,6.147766113E-2
9.145441826E0,-1.822191477E-2,-1.144355536E-2,-1.633405685E-1
9.161402520E0,3.221571445E-3,-3.468233347E-2,-1.775894165E-1
9.177393731E0,8.931029588E-3,-2.535301447E-2,-1.753377914E-1
9.193354424E0,-1.015680656E-2,1.854473352E-2,1.449584961E-3
9.209345635E0,-4.442397505E-2,6.073468924E-2,8.481502533E-2
9.225336846E0,-3.490748629E-2,8.387190104E-2,1.132764816E-1
9.241328057E0,-5.661286414E-3,7.878625393E-2,1.753139496E-2
9.257319268E0,1.858614385E-3,5.847108364E-2,-4.687023163E-2
9.273310479E0,6.216965616E-3,-1.038402319E-2,-1.016530991E-1
9.289271172E0,-3.028595448E-2,-3.758555651E-2,-7.270431519E-2
9.305170830E0,-3.542137146E-2,-4.195356369E-2,-4.384040833E-2
9.321162041E0,-1.426031813E-2,-2.606779337E-2,-1.026344299E-2
9.337214287E0,-2.453438565E-2,1.432681084E-2,1.369571686E-2
9.353144463E0,-2.957052737E-2,2.575522661E-2,8.943557739E-3
9.369135674E0,-2.458337694E-2,4.444867373E-2,4.187583923E-3
9.385126885E0,-1.711107418E-2,3.190189600E-2,-2.689647675E-2
9.401118096E0,-1.166833937E-2,3.093558550E-2,-3.879642487E-2
9.417109307E0,-3.686532378E-3,1.054894924E-2,-7.222461700E-2
9.433100518E0,-1.734831929E-2,1.396012306E-2,-4.339504242E-2
9.449061211E0,3.184100986E-2,9.892940521E-3,-8.636665344E-2
9.465021905E0,1.164314151E-2,4.103720188E-3,-7.910633087E-2
9.480982598E0,-4.281207919E-2,1.314675808E-2,-4.075813293E-2
9.497004326E0,-2.578151971E-2,3.685849905E-2,-1.919174194E-2
9.512995537E0,-1.371551305E-2,5.545240641E-2,-9.575843811E-3
9.528956231E0,-9.143941104E-3,3.270071745E-2,-1.906967163E-2
9.544947442E0,4.641856998E-3,3.609406948E-2,-3.094768524E-2
9.560938653E0,6.514534354E-3,1.327615976E-2,-4.522705078E-2
9.576899346E0,1.283835992E-2,-6.919562817E-3,-4.755306244E-2
9.592890557E0,-1.726737618E-2,1.884281635E-3,-2.356529236E-2
9.608881768E0,-2.869619802E-2,-6.056845188E-3,-4.746532440E-2
9.624872979E0,-1.701777428E-2,1.292544603E-2,-2.590656281E-2
9.640864190E0,-1.475834846E-2,1.735848188E-2,-3.545951843E-2
9.656824883E0,-2.433841676E-2,5.425810814E-3,-5.222129822E-2
9.672816094E0,-2.465085685E-2,1.753604412E-2,-1.871490479E-2
9.688807305E0,-1.538536698E-2,2.716594934E-2,-3.069114685E-2
9.704798516E0,-3.528192639E-3,2.451628447E-2,-2.109718323E-2
9.720789727E0,-2.290073410E-2,1.697486639E-2,-3.783226013E-2
9.736780938E0,-1.385923475E-2,1.177197695E-2,-3.541278839E-2
9.752772149E0,-1.958257332E-2,2.570599318E-2,-2.581024170E-2
9.768763360E0,-1.813445985E-2,2.059829235E-2,-3.297519684E-2
9.784754571E0,-3.541244194E-2,1.541209221E-2,-4.013252258E-2
9.800715264E0,-2.120916918E-2,3.157013655E-2,-1.854324341E-2
9.816706475E0,-2.594576776E-2,9.306728840E-3,-2.567481995E-2
9.832697686E0,-1.806553453E-3,-3.334283829E-3,-3.999137878E-2
9.848688897E0,-1.347262040E-2,5.412161350E-3,-3.274822235E-2
9.864649590E0,1.001633704E-3,-4.765868187E-3,-3.031158447E-2
9.880610284E0,1.277459413E-2,-2.788424492E-3,1.041889191E-2
9.896632012E0,-8.970733732E-3,-1.166582108E-3,-1.346874237E-2
9.912623223E0,-1.857331395E-2,1.441329718E-2,-3.493404388E-2
9.928583916E0,-2.108625695E-2,2.075165510E-2,-4.445075989E-2
9.944514092E0,-1.621947810E-2,6.385922432E-3,-6.599807739E-2
9.960505303E0,-5.750812590E-3,1.233351231E-2,-2.058601379E-2
9.976527032E0,-7.061135024E-3,3.727972507E-3,3.202438354E-2
9.992457207E0,-9.130828083E-3,2.480542660E-2,-8.642196655E-3
1.000841790E1,-3.062513843E-2,3.043174744E-2,-8.514499664E-2
1.002440911E1,-1.329530776E-2,2.480137348E-2,-6.832408905E-2
1.004036981E1,-2.971554175E-2,8.554160595E-3,1.783370972E-2
1.005636102E1,-4.886420071E-2,8.558392525E-3,-2.526283264E-2
1.007229119E1,3.620352596E-2,3.505319357E-2,5.134868622E-2
1.008825188E1,2.881825902E-2,1.991337538E-2,6.576824188E-2
1.010427361E1,-4.729265720E-2,-2.549320459E-2,-7.054805756E-2
1.012026483E1,-1.942854375E-2,-2.961999178E-2,-1.973209381E-1
1.013625604E1,7.887668908E-3,-3.040528297E-2,-1.904191971E-1
1.015218621E1,1.297403872E-2,-2.028197050E-2,-9.485912323E-2
1.016814690E1,-4.711316153E-2,2.941536903E-2,3.395938873E-2
1.018413812E1,-4.710184410E-2,7.553380728E-2,6.470489502E-2
1.020006829E1,6.170962006E-3,8.455014229E-2,1.052808762E-1
1.021609002E1,-2.993781120E-3,7.488697767E-2,-5.734920502E-2
1.023208123E1,-1.073445752E-2,1.332181692E-2,-9.537124634E-2
1.024804192E1,-2.843480930E-2,-5.662131310E-2,-9.756660461E-2
1.026397210E1,-2.648561820E-2,-7.671910524E-2,-4.722404480E-2
1.027993279E1,-3.627994284E-2,-5.967223644E-2,-2.569866180E-2
1.029595452E1,-3.903682902E-2,-1.322400570E-2,5.356788635E-3
1.031191522E1,-2.271015197E-2,2.576553822E-2,1.967144012E-2
1.032787591E1,-1.782929152E-2,3.801053762E-2,-1.895904541E-3
1.034386712E1,-2.885024995E-3,3.322321177E-2,-4.498767853E-2
1.035982781E1,-9.356748313E-3,1.618975401E-2,-4.975223541E-2
1.037578851E1,-1.281764358E-3,2.557313442E-2,-4.015731812E-2
1.039171868E1,-2.229706571E-2,9.507536888E-4,-1.376914978E-2
1.040770989E1,-4.613813013E-3,1.435780525E-2,-5.679225922E-2
1.042370110E1,1.604631543E-3,1.798933744E-2,-6.388473511E-2
1.043966180E1,-1.432172209E-2,1.026242971E-2,-4.468727112E-2
1.045565301E1,-2.600565925E-2,3.426271677E-2,-6.382942200E-3
1.047164422E1,-2.037758753E-2,5.358076096E-2,-3.994941711E-3
1.048763543E1,-2.408082411E-2,4.391431808E-2,-6.376266479E-3
1.050359612E1,-1.834481955E-2,1.752328873E-2,-3.748989105E-2
1.051955682E1,8.232384920E-3,-1.432895660E-3,-4.707908630E-2
1.053557854E1,3.270454705E-3,-2.227413654E-2,-4.713058472E-2
1.055156976E1,-1.656342298E-2,-1.174122095E-2,-1.712799072E-3
1.056756097E1,-1.951301470E-2,-2.295023203E-2,-2.092456818E-2
1.058352166E1,-3.654484078E-2,2.294588089E-2,-1.377105713E-2
1.059951287E1,-2.398733422E-2,2.066731453E-3,-5.930519104E-2
1.061550408E1,-1.603930444E-2,2.041387558E-2,-5.701732635E-2
1.063146478E1,-1.572721452E-2,1.556134224E-2,-4.999732971E-2
1.064745599E1,-3.819622099E-3,6.251931190E-3,-3.821277618E-2
1.066344720E1,-1.104871929E-2,-7.867455482E-3,-9.666442871E-3
1.067943841E1,1.364983618E-3,6.145775318E-3,-1.698875427E-2
1.069542962E1,-1.006616652E-2,2.897202969E-3,-1.948451996E-2
1.071139031E1,-2.560637891E-3,3.762739897E-2,-2.435493469E-2
1.072735101E1,2.242110670E-3,3.148019314E-2,-5.555152893E-2
1.074334222E1,-3.357385099E-2,2.380931377E-2,-5.089378357E-2
1.075930291E1,-2.617037296E-2,9.642899036E-3,-2.233982086E-2
1.077529412E1,-2.887261659E-2,3.030776978E-3,1.336860657E-2
1.079128533E1,-1.690616459E-2,-8.707463741E-3,-1.554107666E-2
1.080724603E1,-2.840086073E-2,-1.815271378E-2,-8.526802063E-3
1.082320672E1,-1.303204894E-2,-8.393228054E-3,8.831024170E-4
1.083916741E1,-2.176702023E-3,-1.075190306E-2,3.123283386E-3
1.085518914E1,1.456081867E-3,1.270264387E-2,-4.966926575E-2
1.087118035E1,-1.180700958E-2,7.837235928E-3,-9.291172028E-2
1.088714104E1,-1.076672971E-2,-5.543231964E-6,-1.123323441E-1
1.090313226E1,7.268220186E-3,1.762771606E-2,-4.565906525E-2
1.091912347E1,-1.548667997E-2,9.814858437E-3,1.138210297E-2
1.093514520E1,-1.748176664E-2,-6.310343742E-3,2.779388428E-2
1.095113641E1,-2.936425060E-2,9.311139584E-3,-3.708457947E-2
1.096709710E1,-2.757176757E-3,7.407844067E-3,-3.966236115E-2
1.098305779E1,-3.600028157E-2,6.062090397E-3,-1.571655273E-3
1.099904900E1,-5.137920380E-3,7.669329643E-3,-7.604694366E-2
1.101507073E1,3.544902802E-2,3.664040565E-2,-1.386117935E-1
1.103100091E1,2.740220726E-2,-2.090215683E-3,-1.754760742E-4
1.104696160E1,-3.400610387E-2,-4.843097925E-2,3.054809570E-2
1.106289178E1,-5.764894187E-3,-4.383862019E-2,-1.157817841E-1
1.107888299E1,4.586257041E-3,-1.238375902E-2,-1.328458786E-1
1.109490472E1,-2.536413074E-2,2.418357134E-2,-4.950809479E-2
1.111089593E1,-5.074036121E-2,5.770194530E-2,2.894401550E-2
1.112685662E1,-4.680004716E-2,8.605444431E-2,1.529216766E-1
1.114281732E1,-1.637227833E-3,8.437418938E-2,4.967117310E-2
1.115880853E1,6.954111159E-3,2.376741171E-2,-6.533336639E-2
1.117483025E1,-1.931372285E-2,-2.747952938E-2,-1.611814499E-1
1.119082146E1,-2.743522078E-2,-8.432081342E-2,-1.661462784E-1
1.120681268E1,-4.919353127E-2,-9.419706464E-2,-2.753639221E-2
1.122280389E1,-3.017559648E-3,-7.257416844E-2,-6.610870361E-2
1.123876458E1,-1.622022688E-2,-2.030229568E-2,-1.698493958E-3
1.125472527E1,-2.921990305E-2,2.437436581E-2,-1.626968384E-2
1.127071649E1,-2.059268206E-2,3.598350286E-2,-4.522800446E-2
1.128670770E1,-2.347303182E-2,5.310893059E-2,-4.309463501E-2
1.130269891E1,-1.414140314E-2,3.723335266E-2,-3.619575500E-2
1.131869012E1,-9.412795305E-3,2.373868227E-2,4.229545593E-3
1.133468133E1,-1.252222806E-2,-5.283117294E-3,6.403923035E-3
1.135064202E1,1.338489354E-3,-2.590996027E-2,3.856658936E-3
1.136663323E1,4.454338178E-2,-3.348842263E-2,-6.804752350E-2
1.138262444E1,-1.817528903E-2,-3.579255939E-2,-1.830778122E-1
1.139861566E1,-3.395729512E-2,-1.968950033E-3,-8.516597748E-2
1.141463738E1,-2.394006401E-2,1.218560338E-2,3.898811340E-2
1.143062859E1,5.203083158E-3,3.239428997E-2,6.264495850E-2
1.144658929E1,4.763729870E-3,3.365135193E-2,6.964302063E-2
1.146254998E1,-2.755010128E-2,2.627325058E-2,5.037021637E-2
1.147854119E1,-2.381746471E-2,2.141326666E-3,-3.833198547E-2
1.149453240E1,-1.682807505E-2,-2.058231831E-2,-8.399772644E-2
1.151046258E1,-6.021775305E-3,-3.412219882E-2,-9.861946106E-2
1.152642327E1,-2.826493233E-2,-3.617843986E-2,-8.698558807E-2
1.154241448E1,-2.880737185E-2,-4.947894812E-2,-1.041078568E-1
1.155840569E1,-3.440032154E-2,-2.887576818E-2,-1.068782806E-1
1.157442742E1,-2.408745140E-2,-8.295834064E-3,-3.782176971E-2
1.159041863E1,-1.900832355E-2,9.428262711E-3,-7.050514221E-3
1.160637933E1,-2.159096301E-3,1.872619987E-2,-4.951477051E-3
1.162234002E1,-1.854758710E-2,3.137433529E-2,-3.390884399E-2
1.163833123E1,-1.782759279E-2,3.116992116E-2,-2.212238312E-2
1.165429192E1,-2.388765663E-2,3.319203854E-2,-1.750373840E-2
1.167028314E1,-5.784414709E-3,1.863569021E-3,3.870964050E-3
1.168624383E1,-1.920897514E-2,-8.496403694E-3,-8.251190186E-3
1.170223504E1,-2.158465236E-2,-1.396888494E-2,-9.460639954E-2
1.171819573E1,-3.425456583E-2,-2.317556739E-2,-1.379137039E-1
1.173415643E1,-2.031929046E-2,-1.833704114E-2,-1.645355225E-1
1.175014764E1,2.318102121E-2,-1.574960351E-2,-9.547138214E-2
1.176607781E1,-9.538061917E-3,-2.707982063E-2,6.696605682E-2
1.178206902E1,-2.375772595E-2,-1.004567742E-2,1.217641830E-1
1.179802972E1,-2.662840486E-2,2.252697945E-3,4.504776001E-2
1.181399041E1,-3.695127368E-2,2.489089966E-4,9.113311768E-3
1.182998162E1,-2.616447210E-2,5.757004023E-3,-5.025863647E-4
1.184597283E1,5.024933070E-2,7.765173912E-3,-2.352075577E-1
1.186199456E1,5.144622177E-2,-1.935362816E-4,-2.066869736E-1
1.187795525E1,-1.718377322E-2,-1.425465941E-2,3.480148315E-2
1.189391595E1,-4.417654127E-2,-5.303815007E-2,-1.420021057E-3
1.190990716E1,5.784682930E-3,-3.432345390E-2,-6.628322601E-2
1.192589837E1,1.877177507E-2,1.763227582E-2,-5.210971832E-2
1.194188958E1,-3.492983431E-2,2.005359530E-2,-4.992389679E-2
1.195785027E1,-5.885196477E-2,5.425968766E-2,-9.458541870E-3
1.197384149E1,-3.727470338E-2,6.560024619E-2,7.654094696E-2
1.198980218E1,-3.209850192E-2,3.286561370E-2,2.138805389E-2
1.200579339E1,-1.997092366E-2,-2.105045319E-2,-6.004714966E-2
1.202178460E1,-8.537948132E-3,-4.894118011E-2,-9.120082855E-2
1.203774529E1,-7.095731795E-3,-7.610167563E-2,-4.576683044E-2
1.205367547E1,-1.750109345E-2,-7.862259448E-2,-6.499385834E-2
1.206963616E1,-1.746342331E-2,-3.500469029E-2,-6.986236572E-2
1.208562737E1,-1.219511777E-2,9.456783533E-3,-7.235431671E-2
1.210158807E1,-2.621187270E-2,2.121907473E-2,-6.529235840E-2
1.211754876E1,-1.894266903E-2,3.155469894E-2,-2.952671051E-2
1.213357049E1,-1.170967519E-2,1.334661245E-2,2.060413361E-2
1.214956170E1,-1.366928965E-2,1.856593788E-2,-7.289886475E-2
1.216555291E1,-1.513230056E-2,-1.275885105E-2,3.473663330E-2
1.218148309E1,-2.629665285E-2,2.837017179E-3,1.136779785E-3
1.219747430E1,4.925044626E-2,-3.143002093E-2,3.942012787E-2
1.221349603E1,4.195972532E-2,-3.701649606E-2,-1.664361954E-1
1.222942620E1,-4.258788377E-2,-1.731416583E-2,-2.382574081E-1
1.224541741E1,-4.947376996E-2,4.226833582E-3,-2.528381348E-2
1.226140862E1,-2.252675593E-3,1.714296639E-2,9.428405762E-2
1.227736932E1,-7.600568235E-3,3.497828543E-2,7.264995575E-2
1.229336053E1,-1.360038668E-2,4.676476121E-3,-3.033351898E-2
1.230935174E1,-1.503691077E-2,-1.781865954E-3,-7.825088501E-2
1.232528191E1,-8.871242404E-3,-9.271770716E-3,-9.746265411E-2
1.234127312E1,-2.563651651E-2,-4.081755877E-2,-7.840633392E-2
1.235723382E1,-2.049414814E-2,-3.604346514E-2,-1.386260986E-2
1.237319451E1,-2.752767503E-2,-2.987445891E-2,-5.229949951E-2
1.238921624E1,-3.228606284E-2,-2.562834322E-2,-1.145868301E-1
1.240520745E1,-3.005213290E-2,-7.053256035E-3,-1.003093719E-1
1.242116815E1,-1.620282978E-2,-2.172753215E-3,-2.379894257E-2
1.243712884E1,-1.704196632E-2,9.790346026E-3,7.665634155E-2
1.245315057E1,-2.011881769E-2,3.410556912E-2,6.462383270E-2
1.246911126E1,-2.000583708E-2,2.540792525E-2,2.151298523E-2
1.248507195E1,-9.231455624E-3,-5.188882351E-4,-3.833675385E-2
1.250106316E1,-1.477785408E-2,-1.091726124E-2,-7.665443420E-2
1.251705438E1,-1.127100736E-2,-2.956008911E-2,-1.102151871E-1
1.253307610E1,-3.762134165E-2,-3.474150598E-2,-1.270542145E-1
1.254906732E1,6.822451949E-3,-1.682589948E-2,-1.104116440E-1
1.256502801E1,-6.574988365E-4,-1.655058563E-2,-1.716709137E-2
1.258098870E1,-2.638255060E-2,-1.694424450E-2,1.287765503E-1
1.259697991E1,-3.101354837E-2,-1.710280776E-3,5.690002441E-2
1.261300164E1,-1.209574938E-2,-9.183898568E-3,-7.238483429E-2
1.262899285E1,-5.333492905E-2,-1.655867696E-2,-6.041717529E-2
1.264495354E1,-2.776985615E-2,-8.064180613E-3,1.856327057E-2
1.266088372E1,7.592903078E-2,1.779334247E-2,-1.610231400E-1
1.267684441E1,5.158725381E-2,5.571782589E-3,-8.684825897E-2
1.269286614E1,-2.225207537E-2,-1.225768030E-2,-2.228927612E-2
1.270879632E1,-3.157208860E-2,-5.324337631E-2,-1.372985840E-1
1.272478753E1,1.413790882E-2,-2.488969266E-2,-2.139968872E-1
1.274077874E1,7.005058229E-3,1.260603964E-2,-3.690814972E-2
1.275673943E1,-2.467472851E-2,3.448679298E-2,7.075977325E-2
1.277270013E1,-4.958052188E-2,7.083902508E-2,1.305704117E-1
1.278869134E1,-4.950231314E-2,5.018105358E-2,8.507156372E-2
1.280465203E1,-2.817060798E-2,4.508252442E-2,-1.091957092E-3
1.282064324E1,-1.635800302E-2,-1.576370001E-2,-7.288074493E-2
1.283660394E1,6.764411926E-3,-7.263474911E-2,-9.441566467E-2
1.285256463E1,-1.748188585E-2,-1.014391184E-1,-1.255435944E-1
1.286852532E1,-1.498527080E-2,-6.808883697E-2,-1.231746674E-1
1.288451653E1,-4.096608609E-2,-5.460398272E-2,-3.505706787E-3
1.290047723E1,-3.540514410E-2,-1.240916550E-2,8.504581451E-2
1.291643792E1,-1.989372820E-2,3.540661931E-2,3.475475311E-2
1.293236810E1,-1.265823841E-3,5.058687180E-2,-8.254814148E-2
1.294835931E1,-1.080942899E-2,9.646713734E-3,-1.639442444E-1
1.296435052E1,-8.367754519E-3,-7.067419589E-3,-9.213829041E-2
1.298034173E1,8.227244020E-3,-9.626150131E-4,6.345367432E-2
1.299630242E1,-7.126331329E-3,2.157166600E-4,1.304759979E-1
1.301223260E1,2.442983538E-2,-2.702394873E-2,2.275085449E-2
1.302822381E1,-1.565605402E-3,-1.179047674E-2,-1.591682434E-1
1.304421502E1,-6.781522930E-2,-8.617520332E-3,-1.184406281E-1
1.306020623E1,-3.049701452E-2,3.263057768E-2,-5.859565735E-2
1.307616692E1,1.031277329E-2,2.949623764E-2,-3.466796875E-2
1.309212762E1,-1.881492138E-2,1.564527303E-2,-3.948783875E-2
1.310811883E1,-2.490468323E-2,-2.743006125E-2,-4.191970825E-2
1.312411004E1,-1.706189662E-2,-3.979047760E-2,1.136779785E-3
1.314010125E1,-5.603201687E-3,-3.573215008E-2,8.251953125E-2
1.315606194E1,-1.402268559E-2,-3.504845500E-2,-5.154705048E-2
1.317202264E1,-2.399803698E-2,6.728544831E-4,-9.461498260E-2
1.318801385E1,-4.156558216E-2,3.321759403E-3,-1.831827164E-1
1.320400506E1,-1.438304782E-2,2.587080002E-3,5.957603455E-3
1.321993524E1,-3.549589217E-2,-1.155932248E-2,-1.560592651E-2
1.323592645E1,-1.350064576E-2,-1.652723923E-2,1.142501831E-3
1.325194817E1,-1.287324727E-2,1.106088609E-2,-2.998256683E-2
1.326787835E1,-2.446527779E-2,1.468748599E-2,-8.026504517E-2
1.328386956E1,-1.439897716E-2,6.862901151E-3,-6.111717224E-2
1.329986077E1,-2.818173170E-2,-7.932633162E-3,-8.451461792E-3
1.331585198E1,-1.847516000E-2,1.493287832E-2,2.027225494E-2
1.333181268E1,-1.826684177E-2,7.820084691E-3,-2.521514893E-2
1.334780389E1,-2.743840218E-2,-1.652149484E-2,-4.914951324E-2
1.336373406E1,-3.693997860E-4,-3.558604419E-2,-1.018123627E-1
1.337972527E1,-7.102757692E-3,-2.711680532E-2,-6.590080261E-2
1.339568597E1,-9.033218026E-3,-1.786699146E-2,-1.084232330E-2
1.341167718E1,-3.631904721E-3,-1.910490915E-2,6.577396393E-2
1.342766839E1,-5.148604512E-3,-1.745181531E-2,-1.248359680E-3
1.344362908E1,4.298090935E-4,-3.582485765E-2,-1.520605087E-1
1.345955926E1,6.723403931E-4,2.324588597E-3,-2.334585190E-1
1.347551995E1,-1.603890955E-2,-8.209731430E-3,-1.065902710E-1
1.349154168E1,-5.947402120E-2,1.963391900E-3,5.139064789E-2
1.350747186E1,-2.677577734E-2,-1.933164895E-3,2.263069153E-2
1.352346307E1,-4.403233528E-3,2.510286868E-3,-3.963947296E-2
1.353945428E1,-7.895396650E-2,-7.344800979E-3,8.962631226E-2
1.355541497E1,6.996870041E-3,2.951700240E-3,-5.880832672E-2
1.357140618E1,6.830897927E-2,3.117059544E-2,-1.880588531E-1
1.358736688E1,-8.632287383E-3,-1.904632896E-2,7.772541046E-2
1.360332757E1,-6.150433421E-2,-4.633898661E-2,9.209442139E-2
1.361931878E1,1.237604022E-2,-4.155663401E-2,-1.042366028E-1
1.363527947E1,3.935463727E-2,-2.920160815E-2,-2.574586868E-1
1.365120965E1,6.608083844E-3,-4.497125745E-3,-1.856279373E-1
1.366720086E1,-4.704478383E-2,3.012640029E-2,3.222465515E-2
1.368316155E1,-4.958544672E-2,6.187344342E-2,1.303510666E-1
1.369912225E1,-2.640628815E-2,7.886184752E-2,7.048511505E-2
1.371511346E1,-2.515164018E-2,1.872918010E-2,-7.075786591E-2
1.373113519E1,-1.909086108E-2,-6.429250538E-2,-1.114311218E-1
1.374706536E1,1.398847252E-2,-8.909706771E-2,-8.027076721E-2
1.376302606E1,8.039847016E-3,-1.081758887E-1,-4.191017151E-2
1.377901727E1,5.301043391E-3,-5.300606042E-2,6.040573120E-3
1.379500848E1,-1.661737263E-2,4.169575870E-3,1.324653625E-3
1.381099969E1,-3.184670210E-2,7.374241203E-2,-2.013683319E-2
1.382699090E1,-2.616436779E-2,5.920882523E-2,-4.399108887E-2
1.384292108E1,-3.329934180E-2,4.087555408E-2,-5.110263824E-2
1.385891228E1,1.646429300E-4,3.626262397E-2,-7.020473480E-2
1.387487298E1,-9.162902832E-3,1.922003925E-3,-6.058597565E-2
1.389086419E1,-1.096384227E-2,-8.319169283E-3,4.241085052E-2
1.390685540E1,-2.120804787E-2,-1.863788068E-2,5.683612823E-2
1.392284661E1,-1.241242886E-2,-3.896288574E-2,1.868247986E-3
1.393883782E1,-2.555474639E-3,-2.977932245E-2,-4.586887360E-2
1.395476800E1,-2.264030278E-2,-5.556330085E-3,-6.007289886E-2
1.397078973E1,-2.562178671E-2,2.044594288E-2,-9.823226929E-2
1.398678094E1,-2.197097242E-2,4.096551239E-2,-2.348899841E-3
1.400274163E1,-2.121527493E-2,2.364341915E-2,4.084968567E-2
1.401870233E1,-9.051218629E-3,1.966214180E-2,2.651214600E-4
1.403469354E1,-2.588719130E-3,2.223768830E-2,-6.186389923E-2
1.405071526E1,1.016482711E-2,-1.022562385E-3,-5.697345734E-2
1.406670648E1,-3.450378776E-3,-6.493777037E-3,-1.139736176E-2
1.408266717E1,-2.365854383E-2,-2.632486820E-2,-4.481887817E-2
1.409865838E1,-3.147648275E-2,6.362989545E-3,-5.668067932E-2
1.411464959E1,-1.421645284E-3,-1.980662346E-3,-5.417251587E-2
1.413067132E1,-3.430369496E-2,-2.000176907E-2,-1.096630096E-2
1.414663201E1,-2.665033937E-2,2.643749118E-3,-2.761268616E-2
1.416262322E1,-2.096743882E-2,-6.552025676E-3,5.632400513E-2
1.417858392E1,-3.131628036E-2,3.104624152E-2,1.341056824E-2
1.419457513E1,-1.693770289E-2,1.554703712E-2,-8.454227448E-2
1.421056634E1,-1.632936299E-2,2.937725186E-2,-1.969051361E-2
1.422655755E1,-1.572108269E-2,2.477610111E-2,1.402187347E-2
1.424251824E1,-1.821076870E-2,1.583319902E-2,-2.650165558E-2
1.425850945E1,-1.923948526E-3,6.804585457E-3,-7.168769836E-3
1.427447015E1,-1.717163622E-2,2.615073323E-2,-3.331565857E-2
1.429046136E1,-3.025974333E-2,-1.203587651E-2,-1.875686646E-2
1.430639153E1,-1.908583939E-2,7.206529379E-3,-3.052520752E-2
1.432238274E1,-3.151026368E-2,2.624094486E-3,-3.749656677E-2
1.433837396E1,-2.939130366E-2,5.662024021E-3,-3.968811035E-2
1.435436517E1,1.310154796E-3,-7.681220770E-3,-2.273559570E-2
1.437032586E1,-6.348818541E-3,3.106385469E-3,-2.254581451E-2
1.438631707E1,-1.677054912E-2,6.826996803E-3,-2.954387665E-2
1.440230828E1,-1.999015361E-2,1.289772987E-2,-2.456474304E-2
1.441829949E1,-1.132425666E-2,3.101152182E-2,-2.437400818E-2
1.443426019E1,4.559554160E-3,1.778981090E-2,-9.806632996E-3
1.445025140E1,-1.293653995E-2,2.109298110E-2,-9.591102600E-3
1.446624261E1,-4.392825067E-3,4.543006420E-2,-1.653766632E-2
1.448220330E1,-1.500611752E-2,1.695996523E-2,-4.741764069E-2
1.449816399E1,-1.361756772E-2,1.288166642E-2,-6.154918671E-2
1.451415521E1,-1.194109023E-2,4.802823067E-3,-3.979015350E-2
1.453017693E1,4.243277013E-3,4.552751780E-3,-2.523517609E-2
1.454610711E1,-6.141208112E-3,4.014343023E-3,-2.742862701E-2
1.456209832E1,-1.431843638E-2,5.500823259E-3,-2.002811432E-2
1.457808953E1,-2.025943249E-2,1.367425919E-2,1.758575439E-3
1.459408074E1,-3.825568408E-2,1.227021217E-2,-1.715278625E-2
1.461010247E1,-5.797147751E-3,1.545563340E-2,-3.604888916E-2
1.462603265E1,-2.818512172E-2,2.839425206E-2,-3.100490570E-2
1.464199334E1,-1.711720973E-2,2.253687382E-2,3.643035889E-4
1.465798455E1,-1.292341202E-2,2.863419056E-2,-8.961677551E-3
1.467394524E1,3.290854394E-3,1.752293110E-2,-3.897666931E-3
1.468993646E1,-2.149607986E-2,8.513808250E-3,-8.501052856E-2
1.470592767E1,-2.033729106E-2,2.883374691E-3,-1.661682129E-1
1.472185784E1,-3.092826158E-2,-7.430791855E-3,-5.829620361E-2
1.473784905E1,-2.698542923E-2,3.303861618E-2,1.405363083E-1
1.475380975E1,-1.361849904E-2,5.161392689E-2,9.528827667E-2
1.476977044E1,-7.293425500E-3,3.294131160E-2,-7.906246185E-2
1.478576165E1,-3.938031197E-2,9.990721941E-3,-1.002035141E-1
1.480175286E1,-4.790186882E-2,8.656769991E-3,1.261234283E-2
1.481771356E1,-1.821561158E-2,1.828816533E-2,-4.702091217E-2
1.483367425E1,3.971835226E-2,4.136148095E-2,-3.755569458E-3
1.484969598E1,2.002824098E-2,3.811755776E-2,1.496324539E-1
1.486568719E1,-1.387446374E-2,6.873607635E-4,3.500652313E-2
1.488167840E1,5.503930151E-3,-1.002407074E-2,-2.399158478E-1
1.489760858E1,1.736521721E-2,-3.349608183E-2,-3.282756805E-1
1.491359978E1,1.001503319E-2,-3.617942333E-2,-1.895246506E-1
1.492962151E1,-3.525985777E-2,2.998095751E-2,7.109260559E-2
1.494555169E1,-2.326823026E-2,6.798416376E-2,2.240676880E-1
1.496151238E1,-9.710386395E-3,1.008128524E-1,1.811246872E-1
1.497750359E1,-7.133886218E-3,9.111553431E-2,2.361679077E-2
1.499346429E1,-1.432995498E-2,5.263423920E-2,-4.995632172E-2
1.500945550E1,-8.336290717E-3,-1.808559895E-2,-8.049774170E-2
1.502538567E1,-2.661229670E-2,-4.798543453E-2,-8.483505249E-2
1.504137689E1,-2.324720472E-2,-6.069952250E-2,-7.017135620E-2
1.505739861E1,-3.398630768E-2,-2.851128578E-2,-4.123878479E-2
1.507338983E1,-3.503961861E-2,4.318058491E-3,9.205818176E-3
1.508932000E1,-3.846658766E-2,3.223186731E-2,-4.983901978E-3
1.510531121E1,-4.418206960E-2,3.381419182E-2,-4.805564880E-3
1.512130242E1,-3.535077721E-2,2.835351229E-2,-1.660442352E-2
1.513726312E1,-9.886331856E-3,2.514749765E-2,1.469993591E-2
1.515322381E1,-1.270914823E-2,3.350239992E-2,-2.100372314E-2
1.516924554E1,-1.085039228E-2,2.428996563E-2,5.107975006E-2
1.518523675E1,-1.676604152E-3,1.913392544E-2,-7.550907135E-2
1.520122796E1,1.981229708E-2,7.349193096E-3,-3.406524658E-3
1.521715814E1,-1.620732993E-2,2.057296038E-2,-1.109313965E-1
1.523314935E1,-2.092491835E-2,3.062355518E-2,-5.574798584E-2
1.524914056E1,2.930410206E-3,1.973330975E-2,4.186630249E-3
1.526513177E1,-3.099741787E-2,3.179770708E-2,-7.646560669E-3
1.528109246E1,-1.005051285E-2,2.644211054E-2,2.107620239E-3
1.529708367E1,-8.213467896E-3,4.008746147E-2,-9.675025940E-3
1.531304437E1,1.242896169E-2,1.297372580E-2,9.668350220E-3
1.532903558E1,2.195272222E-2,3.381907940E-3,-2.596282959E-2
1.534502679E1,6.694689393E-3,1.387822628E-2,-2.348232269E-2
1.536098748E1,-1.193472743E-2,-8.610486984E-4,-4.965877533E-2
1.537697869E1,-2.288640290E-2,-1.005411148E-3,-4.950714111E-2
1.539293939E1,-3.832807392E-2,-9.961068630E-3,-6.137180328E-2
1.540893060E1,-2.717690915E-2,3.013134003E-3,-2.298259735E-2
1.542486077E1,-1.841377467E-2,1.820552349E-2,-6.128311157E-3
1.544085198E1,-2.372257411E-2,1.379424334E-2,-2.276229858E-2
1.545684319E1,-9.540453553E-3,2.100270987E-2,-1.542854309E-2
1.547283440E1,-4.815094173E-3,3.326004744E-2,-2.965831757E-2
1.548885613E1,-3.343671560E-4,2.887380123E-2,-1.756000519E-2
1.550478631E1,-2.992185950E-2,2.228271961E-2,-2.941894531E-2
1.552074700E1,-2.614899352E-2,1.328086853E-2,-1.733589172E-2
1.553673821E1,-2.262485772E-2,4.510760307E-3,1.912117004E-3
1.555272942E1,-2.599574998E-2,1.218175888E-2,1.400184631E-2
1.556875115E1,-1.225419343E-2,1.003581285E-2,-1.698493958E-2
1.558468133E1,-1.489504054E-2,2.684855461E-2,-2.161979675E-2
1.560067254E1,-2.835888416E-3,-1.532733440E-3,-4.063796997E-2
1.561666375E1,2.105782181E-2,1.561683416E-2,-3.571701050E-2
1.563262444E1,-1.975550875E-2,1.142090559E-2,-3.320503235E-2
1.564861566E1,-1.528262347E-2,1.691538095E-2,-2.591037750E-2
1.566457635E1,-3.066200390E-2,1.203602552E-2,-1.808166504E-3
1.568056756E1,-1.657438651E-2,4.073917866E-3,-2.091121674E-2
1.569655877E1,-2.539150417E-3,1.705998182E-2,-3.518581390E-2
1.571254998E1,-2.908437327E-2,1.792532206E-2,-1.593017578E-2
1.572854119E1,-1.967233047E-2,1.181989908E-2,-1.584243774E-2
1.574453240E1,4.093606025E-3,2.492064238E-2,-2.533531189E-2
1.576052361E1,-2.223854885E-2,2.831757069E-2,-6.087303162E-3
1.577648431E1,-1.011274755E-2,1.938849688E-2,-1.178741455E-3
1.579244500E1,-2.189861238E-2,2.447199821E-2,-2.976512909E-2
1.580846673E1,-1.714466140E-2,1.027590036E-2,-6.792068481E-2
1.582445794E1,-2.187731490E-2,1.940131187E-3,-9.178352356E-2
1.584041863E1,-5.019862205E-3,1.900762320E-2,1.114559174E-2
1.585634881E1,-2.873375267E-2,1.181572676E-2,9.734058380E-2
1.587230950E1,-2.554965019E-2,3.186613321E-2,-5.502700806E-4
1.588833123E1,-2.755428106E-2,1.354366541E-2,-1.201505661E-1
1.590426141E1,-1.938860118E-2,7.386744022E-3,-4.343509674E-2
1.592022210E1,-1.879409701E-2,-4.743099213E-3,-1.947879791E-2
1.593621331E1,-3.450717404E-2,1.222324371E-2,-6.737041473E-2
1.595217400E1,2.246914431E-2,3.688412905E-2,7.384967804E-2
1.596816522E1,2.177276462E-2,2.116119862E-2,9.069919586E-2
1.598412591E1,-1.187551767E-2,1.056647301E-2,-4.076099396E-2
1.600008660E1,-1.806335151E-2,-2.786648273E-2,-1.674861908E-1
1.601610833E1,3.811158240E-3,-4.108911753E-2,-1.843242645E-1
1.603206902E1,-3.006994724E-3,-1.455789804E-2,-6.974697113E-2
1.604806024E1,-3.489994630E-2,3.561764956E-2,5.426025391E-2
1.606405145E1,-2.602489665E-2,6.501537561E-2,1.304979324E-1
1.608007317E1,3.458224237E-4,9.676384926E-2,3.468799591E-2
1.609603387E1,-1.158452034E-2,6.029385328E-2,-3.454303741E-2
1.611202508E1,-1.474237069E-2,1.112490892E-2,-4.866123199E-2
1.612801629E1,-2.269766480E-2,-3.494668007E-2,-2.930736542E-2
1.614397698E1,-2.327201143E-2,-5.579662323E-2,-4.834747314E-2
1.615993768E1,-4.029031470E-2,-5.671572685E-2,-2.673721313E-2
1.617592889E1,-4.028487951E-2,-9.065330029E-3,4.403114319E-3
1.619192010E1,-3.326756507E-2,3.637290001E-2,-1.953601837E-2
1.620788079E1,-4.051022232E-2,3.609573841E-2,5.230903625E-2
1.622390252E1,-1.164083928E-2,3.571128845E-2,-5.061435699E-2
1.623989373E1,-1.336758211E-2,4.016757011E-3,-2.423477173E-2
1.625585442E1,9.134937078E-3,-1.437723637E-3,-4.333591461E-2
1.627181512E1,-6.482768804E-3,-2.252101898E-3,-1.933097839E-2
1.628783685E1,-2.032911777E-2,5.887269974E-3,-5.514144897E-2
1.630382806E1,-3.340680152E-3,9.524226189E-3,-2.872371674E-2
1.631978875E1,1.790624112E-3,1.057559252E-2,9.679794312E-3
1.633571893E1,-2.898670733E-3,1.604306698E-2,-5.963230133E-2
1.635171014E1,-1.201445609E-2,2.944517136E-2,-3.561973572E-2
1.636773187E1,3.532767296E-4,2.438765764E-2,-2.079963684E-3
1.638372308E1,-4.208926111E-3,7.422804832E-3,-4.755306244E-2
1.639968377E1,1.067794487E-2,9.562253952E-3,-4.753208160E-2
1.641564446E1,-1.058754325E-2,4.714429379E-3,-6.825447083E-3
1.643163567E1,1.306207106E-2,-2.705097198E-3,2.765655518E-3
1.644765740E1,2.286266536E-3,1.319348812E-3,-4.369735718E-3
1.646358758E1,5.440037698E-3,9.750664234E-3,5.278587341E-3
1.647957879E1,-2.244655043E-2,2.044135332E-2,-1.858329773E-2
1.649557000E1,-2.327307686E-2,1.964581013E-2,-4.726123810E-2
1.651156121E1,-3.068414703E-2,-1.659631729E-3,-3.530979156E-2
1.652758294E1,-2.591923997E-2,-5.995631218E-4,-2.580738068E-2
1.654351312E1,-2.124219388E-2,6.211400032E-4,-6.741523743E-3
1.655950433E1,-1.137388498E-2,8.248507977E-3,-5.225944519E-2
1.657549554E1,-1.108798385E-2,2.017807961E-2,-1.634216309E-2
1.659148675E1,-6.285849959E-3,3.198909760E-2,-2.112007141E-2
1.660744744E1,-1.413285360E-2,3.612792492E-2,-3.065490723E-2
1.662343865E1,-2.464380115E-2,2.117288113E-2,-2.104187012E-2
1.663936883E1,-2.538564801E-2,1.368200779E-2,-2.820587158E-2
1.665539056E1,-2.799206972E-2,-7.742941380E-3,1.009082794E-2
1.667135125E1,-2.312602475E-2,-9.995043278E-3,-6.677627563E-3
1.668731194E1,-1.289913431E-2,4.588305950E-3,5.281448364E-3
1.670327264E1,-9.521368891E-3,1.413834095E-2,-1.625919342E-2
1.671923333E1,-6.214767694E-3,6.767451763E-3,-1.863479614E-2
1.673522454E1,-1.285882294E-2,1.149505377E-2,-1.862716675E-2
1.675121575E1,-5.604315549E-3,1.906114817E-2,2.893447876E-3
1.676717645E1,-1.563560218E-2,5.544185638E-3,-1.957893372E-3
1.678316766E1,-4.018180072E-3,-7.674038410E-3,5.143165588E-3
1.679915887E1,-1.576520130E-2,1.277947426E-2,1.702404022E-2
1.681515008E1,4.456661642E-3,1.669347286E-2,-1.659584045E-2
1.683111077E1,-2.285604179E-2,4.315316677E-3,-2.630233765E-2
1.684707147E1,-2.556312829E-3,-8.558630943E-4,-2.164745331E-2
1.686306268E1,-8.837252855E-3,2.033573389E-2,-2.178382874E-2
1.687905389E1,-3.205593675E-3,2.438825369E-2,2.838516235E-2
1.689504510E1,-2.183087170E-2,8.653819561E-3,-1.238441467E-2
1.691103631E1,-1.894757524E-2,7.324993610E-3,-5.076217651E-2
1.692702752E1,-2.079661191E-2,1.205348969E-2,-6.049537659E-2
1.694301873E1,-2.711851895E-2,6.500780582E-3,-3.305435181E-3
1.695900994E1,-6.982721388E-3,7.996141911E-3,6.347465515E-2
1.697500115E1,-3.699608147E-3,2.210104465E-2,2.023887634E-2
1.699096185E1,-4.070829600E-2,-1.234412193E-3,-8.034896851E-2
1.700695306E1,-1.760870963E-2,5.519151688E-3,-3.498077393E-2
1.702294427E1,-3.527603298E-2,-1.463580132E-2,2.463054657E-2
1.703893548E1,-9.695880115E-3,1.186609268E-3,-1.392364502E-2
1.705486566E1,3.984135762E-2,1.680707932E-2,-7.400894165E-2
1.707082635E1,1.854241639E-2,6.181180477E-3,-3.433227539E-5
1.708684808E1,-3.325462341E-2,-1.959747076E-2,-3.375816345E-2
1.710277825E1,-3.670319915E-3,-3.159844875E-2,-1.464519501E-1
1.711876946E1,3.238189220E-2,-2.716368437E-2,-1.539230347E-1
1.713476067E1,-5.486480892E-3,1.135480404E-2,-3.561019897E-3
1.715075189E1,-3.141194582E-2,4.463744164E-2,3.415393829E-2
1.716671258E1,-2.787231654E-2,9.322535992E-2,1.725301743E-1
1.718267327E1,6.187111139E-4,7.785266638E-2,3.584289551E-2
1.719863397E1,7.532186806E-3,4.471272230E-2,-4.317283630E-2
1.721462518E1,-2.238220721E-2,-3.178060055E-3,-7.189369202E-2
1.723061639E1,-1.477164030E-2,-7.377326488E-2,-8.633136749E-2
1.724657708E1,-2.175595611E-2,-9.508973360E-2,-7.452106476E-2
1.726256829E1,-2.163749933E-2,-6.962180138E-2,-3.166580200E-2
1.727855950E1,-2.373164147E-2,-1.768076420E-2,1.597404480E-2
1.729455071E1,-2.816962451E-2,1.968932152E-2,2.771472931E-2
1.731054192E1,-2.480293065E-2,3.300464153E-2,3.555297852E-3
1.732650262E1,-1.821181923E-2,5.126923323E-2,-2.299880981E-2
1.734249383E1,-1.842162758E-2,1.491540670E-2,-1.605606079E-2
1.735848504E1,-1.380459964E-2,1.005512476E-2,-5.222702026E-2
1.737444573E1,-1.968577504E-3,2.169585228E-2,-2.373695374E-2
1.739040643E1,-2.426699549E-2,-8.389353752E-3,6.945323944E-2
1.740642816E1,5.440369248E-3,1.966613531E-2,2.387332916E-2
1.742241937E1,2.799595147E-2,-1.848816872E-3,-7.907009125E-2
1.743838006E1,-2.659678459E-3,-1.717877388E-2,-1.605501175E-1
1.745431024E1,-2.415300906E-2,1.110917330E-2,-9.854984283E-2
1.747030145E1,-1.494337618E-2,1.763093472E-2,1.121044159E-2
1.748632317E1,-6.012722850E-3,1.868999004E-2,8.988475800E-2
1.750225335E1,5.451433361E-3,1.502299309E-2,1.040496826E-1
1.751824456E1,-2.373598516E-3,2.288043499E-3,1.776218414E-2
1.753423577E1,3.541292250E-2,1.180648804E-3,-6.611156464E-2
1.755019647E1,8.972145617E-3,-1.263964176E-2,-8.542728424E-2
1.756615716E1,-4.967808723E-3,-1.231628656E-2,-4.260730743E-2
1.758208733E1,-2.077569067E-2,-1.587820053E-2,-4.615783691E-3
1.759807854E1,-2.450324595E-2,-3.229916096E-3,-9.686470032E-3
1.761406976E1,-3.839147836E-2,-1.273185015E-2,-4.585170746E-2
1.763006097E1,-2.637227625E-2,-1.054221392E-2,-1.975536346E-2
1.764602166E1,-2.407638729E-2,2.060240507E-2,1.351261139E-2
1.766201287E1,-2.159729600E-3,8.626997471E-3,-8.277893066E-3
1.767800408E1,-3.797255456E-3,2.038133144E-2,-6.109237671E-3
1.769399529E1,-1.227154583E-2,3.449496627E-2,-3.745269775E-2
1.770992547E1,3.633573651E-3,8.105129004E-3,-3.767299652E-2
1.772594720E1,8.440762758E-5,8.543223143E-3,-4.989147186E-2
1.774187737E1,-3.038065881E-2,-1.466566324E-2,-4.297256470E-2
1.775786858E1,-2.283694595E-2,-1.607128978E-2,-1.212310791E-2
1.777385980E1,-3.695566952E-2,-8.407026529E-3,2.114582062E-2
1.778985101E1,-6.841644645E-4,-1.581326127E-2,6.567955017E-3
1.780587274E1,-9.614855051E-3,4.840850830E-3,-7.905960083E-4
1.782180291E1,-1.335479319E-2,-2.017056942E-2,-3.925895691E-2
1.783779412E1,2.073407173E-3,-1.147586107E-2,-5.379390717E-2
1.785378533E1,8.158832788E-4,-1.882061362E-2,-2.286815643E-2
1.786974603E1,-7.679402828E-3,1.243752241E-2,3.256797791E-3
1.788573724E1,-9.092748165E-3,-4.513382912E-3,2.461051941E-2
1.790169793E1,-1.529680938E-2,4.315704107E-3,1.247215271E-2
1.791765862E1,-1.425015181E-2,5.476593971E-3,-1.640415192E-2
1.793364983E1,-6.414324045E-3,-1.704800129E-2,-4.768657684E-2
1.794961053E1,-2.977877855E-2,4.283517599E-3,-6.463718414E-2
1.796557122E1,-1.638010144E-4,-7.072836161E-3,-5.767440796E-2
1.798156243E1,1.515885442E-2,1.116281748E-2,-1.483058929E-2
1.799755364E1,-3.765298426E-2,1.259559393E-2,8.067893982E-2
1.801351434E1,-4.112115502E-2,1.148101687E-2,5.896949768E-2
1.802950555E1,-1.731733233E-2,6.344348192E-3,-4.406547546E-2
1.804552728E1,-1.967728138E-2,-9.925723076E-3,2.525043488E-2
1.806151849E1,-2.965458483E-2,-4.112064838E-3,5.862808228E-2
1.807747918E1,6.353797019E-2,-6.096720695E-3,-1.737222672E-1
1.809337884E1,4.855440557E-2,1.098656654E-2,-1.451988220E-1
1.810937005E1,-5.839083344E-2,-4.370126128E-2,7.954597473E-2
1.812539178E1,-4.452033341E-2,-5.897706747E-2,-2.606678009E-2
1.814132195E1,1.827646792E-2,-1.361885667E-2,-6.456661224E-2
1.815728265E1,1.435402036E-2,6.430119276E-3,-8.870887756E-2
1.817327386E1,-2.229919285E-2,2.598506212E-2,-2.432250977E-2
1.818923455E1,-4.572704434E-2,6.395885348E-2,-2.464294434E-2
1.820519524E1,-3.157474101E-2,6.001114845E-2,1.642217636E-1
1.822118646E1,-1.726955175E-2,3.304266930E-2,1.114082336E-1
1.823711663E1,-1.054807007E-2,-1.265951991E-2,-1.117706299E-3
1.825313836E1,-3.330898285E-2,-6.441876292E-2,-1.255788803E-1
1.826909905E1,-1.999912411E-2,-8.110979199E-2,-1.279859543E-1
1.828509026E1,-2.950198948E-2,-7.098796964E-2,-6.104564667E-2
1.830105096E1,-1.134207100E-2,-3.534993529E-2,-8.508682251E-3
1.831701165E1,6.438791752E-5,4.987239838E-3,-2.539348602E-2
1.833300286E1,-2.270538360E-2,1.660943031E-2,-3.988933563E-2
1.834899407E1,-3.863684833E-2,3.392001987E-2,-4.723262787E-2
1.836495477E1,-1.621506363E-2,8.952021599E-3,-1.150131226E-2
1.838094598E1,-9.866461158E-3,-1.670658588E-3,9.876251221E-3
1.839693719E1,3.836773336E-3,-6.182879210E-3,6.241798401E-2
1.841292840E1,-1.164681464E-2,-7.615685463E-4,1.054372787E-1
1.842891961E1,-1.913610101E-2,4.179418087E-3,8.388233185E-2
1.844488030E1,2.371897548E-2,-2.173599601E-2,1.401901245E-4
1.846087151E1,-6.871700287E-3,-4.528993368E-2,-2.152719498E-1
1.847686272E1,-5.441462249E-2,-1.926395297E-2,-2.296943665E-1
1.849282342E1,-4.988516122E-2,-2.586245537E-3,9.514808655E-3
1.850878411E1,6.491713226E-3,1.247003675E-2,1.457481384E-1
1.852480584E1,-2.292014658E-3,1.699972153E-2,9.532451630E-2
1.854079705E1,6.335526705E-4,2.805051208E-2,2.583217621E-2
1.855675774E1,-2.084463835E-2,-7.257968187E-3,-4.603576660E-2
1.857274896E1,1.231104136E-3,-5.097687244E-4,-6.047534943E-2
1.858874017E1,-8.371844888E-3,-3.060744703E-2,-2.704906464E-2
1.860473138E1,-3.088314831E-2,-1.961696148E-2,-1.276969910E-2
1.862072259E1,-2.403304726E-2,-1.134029031E-2,-1.523303986E-2
1.863671380E1,-1.715555042E-2,-8.472144604E-3,-2.964878082E-2
1.865270501E1,-1.098766923E-2,-7.807850838E-3,-3.449916840E-2
1.866866570E1,-1.254285127E-2,-1.628629863E-2,-8.242607117E-3
1.868462640E1,-2.410177886E-2,-5.520194769E-3,1.561450958E-2
1.870061761E1,-2.616427839E-3,1.230859756E-2,-2.038383484E-2
1.871660882E1,-1.461252570E-2,3.008253872E-2,-5.159187317E-2
1.873260003E1,-1.666515321E-2,-1.626187563E-2,5.780220032E-3
1.874856072E1,-3.272662312E-2,-5.034923553E-3,2.245235443E-2
1.876452142E1,-2.682869136E-2,5.438536406E-3,3.196620941E-2
1.878051263E1,-1.346965879E-2,-1.380795240E-2,-1.116561890E-2
1.879650384E1,-1.483576745E-2,2.473697066E-3,-5.189800262E-2
1.881249505E1,-1.909799874E-3,-1.656439900E-2,-5.433750153E-2
1.882848626E1,-1.074059308E-2,-1.557822526E-2,-4.961395264E-2
1.884444695E1,8.917368948E-3,-2.181912959E-2,-1.855564117E-2
1.886043816E1,-2.001479268E-2,-2.823609114E-2,-3.538417816E-2
1.887642938E1,-1.080259681E-2,-1.578687131E-2,-6.178569794E-2
1.889242059E1,-3.006473184E-3,1.158408821E-2,-1.875400543E-2
1.890838128E1,-1.650438458E-2,8.369401097E-3,9.370326996E-2
1.892434197E1,-3.792028129E-2,5.852043629E-3,9.605407715E-2
1.894030267E1,-4.923626781E-3,1.031520963E-2,-6.675243378E-2
1.895629388E1,-1.482732594E-2,-2.059514821E-2,-1.146450043E-1
1.897228509E1,-4.412961006E-2,-1.290196180E-2,2.176094055E-2
1.898827630E1,3.697045892E-2,-3.063552082E-2,-5.732631683E-2
1.900423699E1,6.708444655E-2,2.060577273E-3,-1.076622009E-1
1.902022820E1,-4.700442404E-2,-1.459810138E-2,1.149177551E-1
1.903621941E1,-6.517354399E-2,-5.276501179E-2,1.076707840E-1
1.905221062E1,-2.940842509E-2,-1.814405620E-2,-6.471824646E-2
1.906817132E1,4.226884246E-2,5.306556821E-3,-2.035741806E-1
1.908416253E1,-1.575820148E-2,1.392842829E-2,-1.724977493E-1
1.910015374E1,-5.481801182E-2,1.803609729E-2,-7.431983948E-3
1.911614495E1,-4.505566508E-2,5.379110575E-2,1.600084305E-1
1.913210565E1,-3.835137188E-2,2.535009384E-2,2.078065872E-1
1.914806634E1,-1.504041255E-2,2.299463749E-2,4.499340057E-2
1.916408807E1,1.007087529E-3,-4.435919225E-2,-1.297502518E-1
1.918007928E1,-2.116701752E-2,-6.748946011E-2,-1.440982819E-1
1.919603997E1,-4.814572632E-3,-9.278737009E-2,-1.249656677E-1
1.921193963E1,-1.896610856E-2,-5.400262028E-2,7.371044159E-2
1.922793084E1,-8.999019861E-3,9.498298168E-4,7.368087769E-2
1.924395257E1,-2.775388211E-2,3.292554617E-2,2.818298340E-2
1.925994378E1,-2.255466580E-2,4.537791014E-2,-1.252174377E-2
1.927590447E1,-2.518296242E-3,3.249250352E-2,-1.013946533E-2
1.929183465E1,1.306761801E-2,-8.956044912E-4,-5.804634094E-2
1.930782586E1,-1.444642991E-2,-9.744912386E-3,-4.610538483E-2
1.932384759E1,8.734315634E-4,-6.569236517E-3,1.132297516E-2
1.933983880E1,-3.023178130E-2,-2.236858010E-3,1.070642471E-1
1.935579949E1,-1.581346989E-2,-4.127380252E-2,9.510421753E-2
1.937172967E1,3.983926773E-2,-3.770925850E-2,-1.298923492E-1
1.938772088E1,-3.817058355E-2,-3.772798181E-2,-2.184305191E-1
1.940374261E1,-7.116831839E-2,-1.143673062E-2,-3.410530090E-2
1.941967278E1,6.956458092E-4,3.053285182E-2,1.071014404E-1
1.943563348E1,1.080287248E-2,2.682843804E-2,1.094884872E-1
1.945162469E1,-1.047693193E-2,1.819954813E-2,2.092552185E-2
1.946758538E1,-2.619524300E-2,1.712605357E-3,-4.131031036E-2
1.948354608E1,1.028429717E-2,-2.266068012E-2,-1.011829376E-1
1.949953729E1,-1.167111844E-2,-3.495844454E-2,-1.323413849E-1
1.951546746E1,-4.409860075E-2,-4.302586615E-2,-6.534385681E-2
1.953148919E1,-3.534454107E-2,-3.400500119E-2,2.320480347E-2
1.954748040E1,-1.029618084E-2,-3.219194710E-2,7.347297668E-2
1.956347161E1,-3.834734857E-2,-9.643390775E-3,3.040409088E-2
1.957943230E1,-2.070547640E-2,-3.175660968E-3,-3.658008575E-2
1.959539300E1,-1.241992414E-2,-1.088690758E-2,-9.638118744E-2
1.961138421E1,-1.358798146E-2,7.276475430E-3,-1.107168198E-1
1.962737542E1,-5.129277706E-4,-1.216650009E-3,-5.086135864E-2
1.964333611E1,-1.172661781E-2,-2.213463187E-3,6.405067444E-2
1.965932732E1,-3.556740284E-2,2.583861351E-3,1.047534943E-1
1.967531854E1,-4.118707776E-2,9.635627270E-3,2.097988129E-2
1.969130975E1,-3.763078153E-2,-1.300215721E-3,-9.390449524E-2
1.970730096E1,-2.430185676E-2,-2.318184078E-2,-1.082448959E-1
1.972329217E1,-1.561424136E-2,-1.712267101E-2,-4.838562012E-2
1.973928338E1,-2.309572697E-2,-2.265395224E-2,1.626586914E-2
1.975527459E1,-1.556141675E-2,-1.206758618E-2,2.108001709E-2
1.977123528E1,-7.307142019E-3,-2.173013985E-2,2.113056183E-2
1.978719598E1,-6.228759885E-3,-8.934140205E-4,-5.144119263E-3
1.980321770E1,2.499744296E-3,-9.922683239E-4,-3.856563568E-2
1.981920892E1,7.412433624E-3,9.307801723E-3,-6.966114044E-2
1.983516961E1,-2.664735913E-2,-1.729445159E-2,-9.117317200E-2
1.985109979E1,-6.303206086E-3,-2.480641007E-3,-1.198883057E-1
1.986709100E1,-1.452426612E-2,-8.168190718E-3,-4.327201843E-2
1.988311272E1,-2.272821963E-2,2.189214528E-2,1.386928558E-1
1.989904290E1,-2.898378670E-2,1.326611638E-2,1.100082397E-1
1.991500359E1,-2.117520571E-2,3.361970186E-3,-5.029392242E-2
1.993099480E1,-5.195054412E-2,2.583369613E-3,-7.411575317E-2
1.994698602E1,-5.716213584E-2,-8.663639426E-3,-2.374935150E-2
1.996297723E1,4.887684435E-2,-1.154705882E-2,-1.409816742E-1
1.997893792E1,3.173948824E-2,-2.473771572E-3,-5.473613739E-2
1.999492913E1,-1.517473161E-2,-2.158799767E-2,2.278099060E-1
2.001092034E1,-4.452801496E-2,-4.482869804E-2,1.465072632E-1
2.002691155E1,1.561503112E-2,-2.513189614E-2,-1.262073517E-1
2.004293328E1,2.055060863E-2,-3.166645765E-3,-2.528896332E-1
2.005892449E1,-1.966519654E-2,3.150810301E-2,-1.785783768E-1
2.007488519E1,-4.865599424E-2,5.248071253E-2,-1.342487335E-2
2.009084588E1,-2.067852020E-2,6.830525398E-2,1.637048721E-1
2.010683709E1,-3.312810510E-2,7.147607207E-2,1.949176788E-1
2.012282830E1,-3.596881777E-2,1.607294381E-2,1.113557816E-1
2.013881951E1,2.324470878E-2,-5.524252355E-2,1.353931427E-2
2.015481072E1,-2.280545980E-2,-6.194159389E-2,-1.656599045E-1
2.017077142E1,-1.596808434E-3,-8.953410387E-2,-1.150808334E-1
2.018676263E1,-1.084692031E-2,-3.936120868E-2,-9.571170807E-2
2.020278436E1,-3.200747073E-3,-1.432907581E-2,-2.151489258E-3
2.021877557E1,-2.420078963E-2,4.170507193E-2,4.592800140E-2
2.023476678E1,-3.335274756E-2,6.795570254E-2,4.376411438E-2
2.025072747E1,-1.389648765E-2,3.383606672E-2,5.707740784E-3
2.026671868E1,-2.044493705E-2,4.080393910E-2,1.167297363E-3
2.028274041E1,1.454822719E-3,4.143729806E-2,-5.846595764E-2
2.029873162E1,1.117850095E-2,1.888701320E-2,-1.517200470E-2
2.031472283E1,-4.489635676E-2,-1.639872789E-3,5.446147919E-2
2.033065301E1,-1.058242470E-2,-3.093260527E-2,1.880359650E-2
2.034661370E1,-1.610034704E-2,-2.763044834E-2,-5.990028381E-2
2.036263543E1,-3.042592853E-2,-1.386794448E-2,-7.158374786E-2
2.037862664E1,-1.586085558E-2,-1.261565089E-2,-6.896400452E-2
2.039458733E1,-2.800290287E-2,2.101612091E-2,1.501083374E-2
2.041051751E1,-1.635833830E-2,3.280457854E-2,5.589962006E-2
2.042653924E1,-9.853385389E-3,2.640098333E-2,4.656696320E-2
2.044249993E1,-8.898429573E-3,3.065714240E-2,6.157875061E-3
2.045849114E1,8.018903434E-3,2.237045765E-2,-2.225875854E-2
2.047448235E1,-1.373135298E-2,-1.929998398E-3,-2.676010132E-2
2.049050408E1,-3.003849089E-2,-1.802486181E-2,-5.762863159E-2
2.050646478E1,-1.880443096E-2,1.472166181E-2,-3.106117249E-2
2.052239495E1,-1.423278451E-2,-9.618073702E-3,2.870559692E-4
2.053838616E1,-1.920508593E-2,-8.780360222E-4,2.926826477E-3
2.055440789E1,-1.483297348E-2,3.120234609E-2,1.277828217E-2
2.057039910E1,-2.292470634E-2,2.201914787E-2,-3.683090210E-3
2.058632928E1,-2.405308187E-3,2.495267987E-2,1.400947571E-3
2.060235101E1,-1.296471059E-2,2.125242352E-2,-7.190704346E-4
2.061834222E1,-1.895173639E-2,2.028059959E-2,-1.961135864E-2
2.063433343E1,-2.261412144E-2,5.239695311E-3,-2.654457092E-2
2.065032464E1,-3.364507854E-2,1.667234302E-2,-1.193618774E-2
2.066631585E1,-1.078674942E-2,1.374071836E-2,-6.896972656E-3
2.068227654E1,-6.780818105E-3,2.244955301E-2,-2.098941803E-2
2.069826775E1,-2.411749214E-2,4.569083452E-3,-1.544952393E-3
2.071425897E1,-9.956195951E-3,1.031276584E-2,-6.019592285E-3
2.073025018E1,-1.990339160E-2,1.111817360E-2,-2.963733673E-2
2.074621087E1,-6.325438619E-3,5.050897598E-3,-2.932929993E-2
2.076220208E1,5.590915680E-5,3.059262037E-2,-1.707172394E-2
2.077819329E1,-5.654610693E-3,1.563525200E-2,4.754066467E-3
2.079418450E1,-9.489409626E-3,1.251792908E-2,-9.326934814E-3
2.081014520E1,-8.604720235E-3,-3.257989883E-4,5.435943604E-4
2.082613641E1,-2.220834047E-2,1.080274582E-2,-1.113224030E-2
2.084209710E1,-1.164833456E-2,2.942723036E-2,-3.479099274E-2
2.085808831E1,-2.236402780E-2,1.488447189E-2,1.096820831E-2
2.087407952E1,-1.832223684E-2,1.494842768E-2,-7.429122925E-4
2.089007073E1,-6.773605943E-3,1.740074158E-2,-2.871513367E-3
2.090606194E1,-1.651570201E-2,1.708543301E-2,-1.859664917E-4
2.092202264E1,-9.622864425E-3,9.596049786E-3,-4.059410095E-2
2.093801385E1,-1.031183451E-2,3.110706806E-2,-3.313446045E-2
2.095400506E1,-1.333760470E-2,1.961511374E-2,-2.091407776E-2
2.096999627E1,-2.358715236E-2,-5.949079990E-3,-8.710861206E-3
2.098598748E1,-1.936839521E-2,1.394605637E-2,2.504634857E-2
2.100197869E1,-7.807038724E-3,1.641172171E-2,-1.008987427E-3
2.101796990E1,-1.531006396E-2,2.050995827E-2,-5.095767975E-2
2.103393060E1,-2.765639126E-2,-5.648612976E-3,-1.009559631E-1
2.104986077E1,-1.836425066E-2,-1.487970352E-3,-6.485939026E-2
2.106585198E1,-3.505027294E-2,4.236161709E-3,5.494213104E-2
2.108187371E1,-2.054096013E-2,4.221045971E-2,8.384323120E-2
2.109780389E1,-2.516082674E-2,3.221833706E-2,-2.596378326E-2
2.111379510E1,-8.220344782E-3,-6.753563881E-3,-1.022338867E-1
2.112978631E1,-8.058778942E-3,1.937389374E-3,-1.822662354E-2
2.114577752E1,-3.951840103E-2,2.123814821E-2,-3.245067596E-2
2.116179925E1,1.201044768E-2,4.387342930E-2,-3.627777100E-3
2.117775994E1,4.180667922E-2,4.722511768E-2,1.544895172E-1
2.119372064E1,-8.200496435E-3,7.024526596E-3,3.503990173E-2
2.120968133E1,-1.168989390E-2,-9.214341640E-3,-1.369361877E-1
2.122564202E1,1.087385044E-2,-4.454964399E-2,-3.066577911E-1
2.124160272E1,3.090903163E-3,-3.822904825E-2,-1.894464493E-1
2.125759393E1,-3.717144579E-2,3.791451454E-3,-1.747608185E-2
2.127352410E1,-3.005696833E-2,4.648584127E-2,1.592407227E-1
2.128954583E1,-1.490766928E-2,8.223402500E-2,1.614818573E-1
2.130553704E1,1.324011758E-2,9.938728809E-2,8.275127411E-2
2.132146722E1,-2.090369165E-2,4.152661562E-2,-3.168201447E-2
2.133745843E1,-3.139264509E-2,2.838075161E-3,-6.231594086E-2
2.135344964E1,-8.308872581E-3,-4.082572460E-2,-7.393646240E-2
2.136944085E1,-2.338785306E-2,-4.505014420E-2,-7.605361938E-2
2.138537103E1,-3.328009322E-2,-2.418506145E-2,-2.573108673E-2
2.140139275E1,-1.721912995E-2,-1.010119915E-3,-6.529808044E-3
2.141738397E1,-2.967399359E-2,1.170033216E-2,3.155708313E-3
2.143334466E1,-1.073738933E-2,4.215180874E-2,-2.074241638E-2
2.144927483E1,-3.253503889E-2,4.065078497E-2,-1.346111298E-2
2.146523553E1,-1.859851927E-2,3.658843040E-2,-1.095581055E-2
2.148125726E1,-2.348666266E-2,3.210669756E-2,1.073265076E-2
2.149724847E1,6.390996277E-4,2.478194237E-2,-2.740097046E-2
2.151323968E1,-2.356997505E-2,1.235914230E-2,-3.917884827E-2
2.152920037E1,-1.876554638E-2,1.273590326E-2,-1.988697052E-2
2.154519158E1,-2.066237852E-2,1.054614782E-2,-2.212715149E-2
2.156121331E1,1.518830657E-3,1.065361500E-2,-7.942676544E-2
2.157714349E1,-5.601607263E-4,2.149027586E-2,-5.300998688E-2
2.159313470E1,-3.192643821E-2,1.613056660E-2,4.488945007E-3
2.160912591E1,-2.501813322E-2,3.436917067E-2,-3.854465485E-2
2.162511712E1,-3.495536745E-3,1.179170609E-2,-3.847408295E-2
2.164107781E1,-5.689486861E-3,6.023406982E-3,-4.885673523E-3
2.165706902E1,3.128893673E-3,3.106939793E-2,-1.198291779E-2
2.167302972E1,6.135217845E-3,4.142695665E-2,9.155273438E-5
2.168899041E1,8.869193494E-3,2.049148083E-2,1.696395874E-2
2.170498162E1,-3.277452290E-2,-3.643602133E-2,-1.642894745E-2
2.172094232E1,-5.707633868E-2,-6.403774023E-2,-1.264753342E-1
2.173690301E1,-7.867351919E-2,-1.142972708E-2,-1.264705658E-1
2.175289422E1,-4.818001017E-2,9.012633562E-2,1.710700989E-2
2.176888543E1,-1.868857443E-2,1.162424088E-1,1.368255615E-1
2.178487664E1,-1.035364717E-2,3.638547659E-2,1.083173752E-1
2.180080682E1,8.711107075E-3,-2.333796024E-2,9.078979492E-4
2.181679803E1,-1.156439632E-2,-5.121630430E-2,-8.739089966E-2
2.183278924E1,-1.214239001E-2,-2.399915457E-2,-5.375385284E-2
2.184878045E1,-4.666864127E-2,3.034889698E-3,-4.661369324E-2
2.186471062E1,-5.311749503E-2,1.433169842E-2,-4.912757874E-2
2.188073235E1,-2.588272467E-2,-2.801477909E-3,-3.011322021E-2
2.189672357E1,8.746117353E-3,-1.051485538E-3,-3.741359711E-2
2.191268426E1,2.840209752E-3,-1.892292500E-2,-8.059310913E-2
2.192858392E1,-2.947706729E-2,1.108527184E-2,-6.631183624E-2
2.194457513E1,-4.593199864E-2,3.642147779E-2,-1.852416992E-2
2.196059686E1,-5.851807073E-2,2.950292826E-2,-4.488372803E-2
2.197652703E1,-1.593441516E-2,4.580897093E-2,-5.203723907E-2
2.199251824E1,-9.120739996E-3,5.197465420E-2,-2.084255219E-2
2.200850945E1,-9.188137949E-3,3.637623787E-2,-1.596736908E-2
2.202447015E1,1.495458558E-2,4.229408503E-2,-3.905296326E-3
2.204046136E1,1.025505364E-3,1.713603735E-2,-1.578712463E-2
2.205642205E1,-1.957536116E-2,6.005227566E-3,-3.243064880E-2
2.207238274E1,2.289868891E-3,-6.303727627E-3,-7.310581207E-2
2.208834344E1,-4.540022463E-3,-2.559548616E-2,-2.042198181E-2
2.210433465E1,2.673272043E-3,-2.569359541E-2,-1.802062988E-2
2.212035638E1,-7.258325815E-3,-4.807537794E-2,-5.866432190E-2
2.213631707E1,-2.935797721E-2,-5.603253841E-3,-3.946971893E-2
2.215230828E1,-3.219774738E-2,2.378010750E-2,-5.867195129E-2
2.216826898E1,-1.573468000E-2,2.965545654E-2,5.617141724E-2
2.218426019E1,-2.106261253E-2,5.111223459E-2,1.256055832E-1
2.220022088E1,-3.335335106E-2,2.488994598E-2,-1.126289368E-3
2.221618157E1,-3.536483645E-2,5.108118057E-3,-5.836772919E-2
2.223214227E1,-1.481601596E-2,2.778613567E-2,-2.235603333E-2
2.224813348E1,-3.019628301E-2,8.921086788E-3,1.574516296E-3
2.226409417E1,-6.382890046E-3,2.606505156E-2,-8.941936493E-2
2.228002435E1,4.213190824E-2,2.773159742E-2,3.737258911E-2
2.229604608E1,1.072118431E-2,-1.022726297E-2,3.734588623E-2
2.231203729E1,-1.801066473E-2,-3.365713358E-2,-1.085805893E-1
2.232802850E1,-9.588409215E-3,-5.863839388E-2,-2.018871307E-1
2.234395867E1,9.597197175E-3,-4.917711020E-2,-1.924743652E-1
2.235998040E1,-3.739781678E-4,4.248082638E-3,-7.555675507E-2
2.237597161E1,-2.085890993E-2,5.387783051E-2,1.734542847E-2
2.239193230E1,-2.184105664E-2,8.764630556E-2,1.343011856E-1
2.240786248E1,-6.614401937E-4,9.506255388E-2,1.079473495E-1
2.242382317E1,3.526542336E-3,1.073904634E-1,-8.567523956E-2
2.243984490E1,-1.183345541E-2,5.051225424E-2,-8.777904510E-2
2.245577508E1,-3.199687600E-2,-3.460288048E-2,-3.741264343E-2
2.247176629E1,-2.547201887E-2,-6.330335140E-2,-4.938888550E-2
2.248775750E1,-3.041673452E-2,-7.030963898E-2,-4.221916199E-2
2.250371819E1,-3.782084584E-2,-3.145581484E-2,-2.789497375E-2
2.251970940E1,-4.334291443E-2,7.313430309E-3,2.234649658E-2
2.253563958E1,-2.471214905E-2,2.407187223E-2,3.670978546E-2
2.255163079E1,-1.989834756E-2,3.304362297E-2,8.392333984E-4
2.256765252E1,-1.474131644E-2,1.032280922E-2,-2.780532837E-2
2.258361321E1,-1.166172326E-2,4.567623138E-3,-7.322311401E-2
2.259960442E1,-1.776352525E-2,1.132279634E-2,-4.685020447E-2
2.261556512E1,-2.814959735E-3,1.617550850E-3,-5.402088165E-2
2.263155633E1,-7.462128997E-3,1.781970263E-2,-1.042585373E-1
2.264754754E1,5.230013281E-3,3.187543154E-2,3.506660461E-3
2.266353875E1,-1.418682188E-2,1.890295744E-2,-2.994155884E-2
2.267952996E1,-5.062382668E-3,2.195346355E-2,-4.897308350E-2
2.269552117E1,-7.453285158E-3,2.246850729E-2,-3.686714172E-2
2.271151238E1,-1.270497963E-2,4.158556461E-3,-3.675842285E-2
2.272750359E1,-8.100170642E-3,5.371570587E-3,-4.864501953E-2
2.274346429E1,-1.317160577E-2,-2.333581448E-3,-1.987838745E-2
2.275942498E1,5.552068353E-3,-1.205390692E-2,1.676559448E-3
2.277541619E1,2.834261954E-2,4.037559032E-3,-1.025199890E-2
2.279137689E1,7.653865963E-3,1.481604576E-2,-1.017379761E-2
2.280730706E1,-3.441315144E-3,1.112699509E-2,-1.727008820E-2
2.282329827E1,-2.136880904E-2,4.048347473E-4,-3.634643555E-2
2.283932000E1,-4.589557648E-2,-2.027213573E-3,-4.592323303E-2
2.285531121E1,-2.474674955E-2,-3.832101822E-3,-4.596805573E-2
2.287127190E1,-3.233265132E-2,1.144230366E-2,-1.970005035E-2
2.288720208E1,-3.917701542E-3,1.191097498E-2,-5.817413330E-4
2.290319329E1,-1.349593699E-2,2.135592699E-2,1.618671417E-2
2.291921502E1,-2.074216306E-2,4.707282782E-2,2.580833435E-2
2.293514520E1,-1.371581852E-2,4.128259420E-2,-4.568099976E-4
2.295113641E1,-2.129721642E-2,3.069287539E-2,-3.869152069E-2
2.296712762E1,-5.304807797E-2,1.409989595E-2,-6.743717194E-2
2.298311883E1,-6.084820628E-2,-5.291402340E-3,-1.731777191E-2
2.299911004E1,-2.263693139E-2,-2.107399702E-2,2.553367615E-2
2.301510125E1,-1.994591951E-2,-1.348376274E-2,3.730487823E-2
2.303109246E1,-1.811649650E-3,-9.720623493E-3,-2.982521057E-2
2.304705316E1,2.445507422E-2,-6.546497345E-3,-1.040906906E-1
2.306304437E1,1.471944153E-2,4.564881325E-3,-4.433441162E-2
2.307906609E1,-3.994360939E-2,1.133507490E-2,-1.378059387E-3
2.309499627E1,5.729682744E-3,2.539330721E-2,-2.786159515E-2
2.311098748E1,3.725940734E-2,4.223155975E-2,2.703189850E-2
2.312697869E1,5.425628275E-3,5.604445934E-3,-1.858043671E-2
2.314293939E1,-2.998470888E-2,-5.273938179E-3,4.863739014E-4
2.315893060E1,-1.435879245E-2,-1.781094074E-2,-1.600599289E-1
2.317489129E1,8.976906538E-4,-5.136913061E-2,-1.220808029E-1
2.319085198E1,2.629799396E-2,-1.045978069E-2,-1.130104065E-1
2.320684319E1,-3.246860206E-2,2.969557047E-2,1.805686951E-2
2.322280389E1,-4.843882471E-2,7.104474306E-2,9.893226624E-2
2.323876458E1,-1.588461921E-2,8.427423239E-2,6.996536255E-2
2.325475579E1,-3.375823051E-2,4.843801260E-2,-1.383018494E-2
2.327074700E1,-1.651597396E-2,-1.707500219E-2,-3.052806854E-2
2.328673821E1,-2.289796248E-2,-3.409993649E-2,-4.008293152E-2
2.330272942E1,-6.892926991E-3,-5.735343695E-2,-3.533172607E-2
2.331872064E1,-1.855272427E-2,-5.298447609E-2,-8.093738556E-2
2.333471185E1,-1.349118352E-2,-3.466975689E-2,-6.442451477E-2
2.335070306E1,-9.177222848E-3,1.637136936E-2,-3.844261169E-2
2.336669427E1,-1.720522344E-2,3.922003508E-2,-3.643703461E-2
2.338265496E1,-1.663282514E-3,2.104276419E-2,-8.072853088E-3
2.339864617E1,2.212189138E-3,9.164452553E-3,-3.587722778E-3
2.341463738E1,-8.020959795E-3,1.985317469E-2,9.889602661E-4
2.343059808E1,-2.086922526E-2,2.230697870E-2,1.999664307E-2
2.344655877E1,-3.928901255E-2,4.875898361E-3,-6.443977356E-3
2.346254998E1,-7.544636726E-3,1.596426964E-2,-7.357215881E-2
2.347857171E1,2.756044269E-3,-3.137469292E-3,-9.047985077E-2
2.349456292E1,-1.769859344E-2,1.075166464E-2,-5.004119873E-2
2.351052361E1,-1.858384907E-2,1.646280289E-2,-4.320144653E-2
2.352645379E1,-1.007273793E-2,1.610946655E-2,2.103233337E-2
2.354244500E1,-1.874850690E-2,2.686077356E-2,7.813739777E-2
2.355846673E1,-1.604217291E-2,7.053732872E-3,6.113052368E-2
2.357439690E1,3.546178341E-4,1.480722427E-2,3.461360931E-2
2.359035760E1,-7.555954158E-3,3.383755684E-3,-4.697132111E-2
2.360634881E1,-5.431726575E-3,-8.920133114E-3,-1.611328125E-2
2.362230950E1,1.246951520E-2,-1.029282808E-2,-4.517555237E-2
2.363827020E1,-2.034768462E-3,-1.322346926E-2,-1.053991318E-1
2.365426141E1,-1.899284124E-2,-3.149366379E-2,-1.178150177E-1
2.367019158E1,-2.247330546E-2,-2.923345566E-2,-7.045364380E-2
2.368621331E1,-1.512134075E-2,-7.187843323E-3,3.433322906E-2
2.370217400E1,-8.125662804E-3,1.068651676E-3,6.739997864E-2
2.371816522E1,-5.097769201E-3,4.466235638E-3,-2.388668060E-2
2.373412591E1,-3.245729953E-2,2.887880802E-2,-6.485652924E-2
2.375008660E1,-2.805986255E-2,1.112449169E-2,-1.369895935E-1
2.376607781E1,5.328558385E-3,3.362607956E-2,-7.274913788E-2
2.378203851E1,-1.906827092E-4,2.527511120E-2,4.894161224E-2
2.379799920E1,-3.078831732E-2,1.817202568E-2,7.731151581E-2
2.381399041E1,-1.628635079E-2,1.156836748E-3,1.483821869E-2
2.382998162E1,-2.100037038E-2,-1.396179199E-2,-2.127361298E-2
2.384591180E1,-4.323931783E-2,-1.412361860E-2,2.637767792E-2
2.386187249E1,2.341326326E-2,-1.147830486E-2,-6.006050110E-2
2.387789422E1,4.572912306E-2,-7.671743631E-3,-1.154165268E-1
2.389388543E1,2.240438014E-2,-1.630178094E-2,-2.241897583E-2
2.390987664E1,-5.458676070E-2,-5.103459954E-2,5.380535126E-2
2.392583733E1,-3.674831241E-2,-4.659453034E-2,8.106231689E-4
2.394182854E1,1.576678455E-2,-1.080018282E-2,-7.612228394E-2
2.395785027E1,-2.514876425E-3,1.691976190E-2,-1.243734360E-1
2.397378045E1,-4.753426462E-2,5.512249470E-2,-8.896541595E-2
2.398977166E1,-4.702322185E-2,8.837258816E-2,4.931735992E-2
2.400576287E1,-1.982320100E-2,7.623830438E-2,1.087055206E-1
2.402175408E1,-4.176676273E-3,4.076486826E-2,3.180503845E-2
2.403771478E1,-2.208783478E-2,-4.110753536E-2,-4.017543793E-2
2.405370599E1,-1.182606816E-2,-5.911844969E-2,-5.945682526E-2
2.406969720E1,-2.340886742E-2,-8.706948161E-2,-3.323841095E-2
2.408568841E1,-2.269528061E-2,-6.002783775E-2,-3.334712982E-2
2.410164910E1,-1.926427335E-2,-1.830008626E-2,-3.346347809E-2
2.411760980E1,-2.304316312E-2,5.335360765E-3,-1.207065582E-2
2.413360101E1,-2.709306777E-2,3.492796421E-2,-1.945114136E-2
2.414953118E1,-2.388948947E-2,1.959195733E-2,3.540229797E-2
2.416555291E1,-1.404479146E-3,4.808276892E-3,-2.467918396E-2
2.418154412E1,-4.818290472E-3,-4.627138376E-3,1.339149475E-2
2.419753533E1,-1.789586991E-2,-1.837933064E-2,-7.304763794E-2
2.421346551E1,-2.487237751E-2,-2.783057094E-2,5.121421814E-2
2.422945672E1,3.500303626E-2,-6.484225392E-2,1.989459991E-2
2.424544793E1,9.380318224E-3,-3.893968463E-2,-1.502237320E-1
2.426143914E1,-6.640189886E-2,-4.359066486E-3,-1.049060822E-1
2.427739983E1,-1.843833923E-2,3.300070763E-3,1.936054230E-2
2.429339104E1,-1.129601896E-2,3.650766611E-2,1.292905807E-1
2.430938226E1,1.748157293E-2,3.568363190E-2,1.339645386E-1
2.432537347E1,-1.374030113E-2,3.047767282E-2,1.659011841E-2
2.434136468E1,7.604666054E-3,1.308116317E-2,-7.444190979E-2
2.435732537E1,1.715610176E-2,-1.908567548E-2,-1.224327087E-1
2.437331658E1,-1.381765306E-2,-2.189135551E-2,-6.994628906E-2
2.438930779E1,-2.547770739E-2,-4.672577977E-2,-5.533218384E-3
2.440526849E1,-3.678223491E-2,-4.084384441E-2,8.623123169E-3
2.442122918E1,-1.183890551E-2,-2.676181495E-2,-4.181861877E-2
2.443725091E1,-1.571005583E-2,-1.112164557E-2,-7.308197021E-2
2.445324212E1,-7.935523987E-3,-1.207552850E-2,-5.167675018E-2
2.446920281E1,2.004221082E-3,-1.027853787E-2,3.239631653E-3
2.448513299E1,-1.664284617E-2,1.028919220E-2,6.535434723E-2
2.450112420E1,-3.013098240E-2,2.730076015E-2,4.609966278E-2
2.451714593E1,-7.305823267E-3,3.343959153E-2,-1.142692566E-2
2.453307610E1,-1.535481215E-2,-8.115246892E-3,-6.177234650E-2
2.454903680E1,-1.409769058E-2,-1.728138328E-2,-8.101940155E-2
2.456499749E1,-1.827128977E-2,-2.761945128E-2,-5.241107941E-2
2.458095818E1,-2.276775241E-2,-1.821810007E-2,-5.014991760E-2
2.459691888E1,-1.217340678E-2,8.955597878E-4,-6.224346161E-2
2.461287957E1,-1.790056378E-2,8.099794388E-3,3.580570221E-2
2.462884026E1,-2.919570357E-2,-1.270663738E-2,3.332424164E-2
2.464486199E1,4.152476788E-3,-1.459345222E-2,-3.376579285E-2
2.466082269E1,-3.420785069E-2,-9.974092245E-3,-3.380393982E-2
2.467678338E1,-6.172016263E-2,-2.394156158E-2,3.556823730E-2
2.469271356E1,3.764033318E-2,-2.840562165E-2,-1.249017715E-1
2.470870477E1,5.904235691E-2,-1.236839592E-2,-1.297569275E-1
2.472469598E1,-2.062354237E-2,-4.204539955E-2,4.731082916E-2
2.474068719E1,-7.407242060E-2,-4.435024410E-2,1.022672653E-1
2.475667840E1,-8.724242449E-3,-1.417745650E-2,8.304595947E-2
2.477266961E1,5.832172930E-3,2.154749632E-2,-2.232074738E-2
2.478866082E1,1.182541251E-3,4.021540284E-2,-1.372690201E-1
2.480465203E1,-3.889358044E-2,5.353385210E-2,-1.086158752E-1
2.482061272E1,-4.077064246E-2,5.525678396E-2,2.295398712E-2
2.483654290E1,-6.521776319E-3,1.777315140E-2,9.708404541E-2
2.485253411E1,8.348859847E-3,-2.129128575E-2,2.761077881E-2
2.486852532E1,-6.103046238E-3,-8.234885335E-2,1.323127747E-2
2.488448602E1,-6.859928370E-3,-1.020229012E-1,-2.029132843E-2
2.490044671E1,-1.948742568E-2,-8.840312064E-2,-2.268314362E-2
2.491646844E1,-2.569911629E-2,-3.655048460E-2,-4.421234131E-2
2.493245965E1,-9.109646082E-3,-8.101291955E-3,-6.573104858E-2
2.494842034E1,-7.138550282E-3,5.109585822E-2,-3.460311890E-2
2.496435052E1,-2.824169397E-2,4.227893054E-2,2.280235291E-2
2.498031121E1,-6.669595838E-3,1.349204034E-2,1.559352875E-2
2.499633294E1,-1.036114991E-3,-8.786320686E-4,1.555442810E-2
2.501232415E1,1.793546975E-2,-8.425809443E-3,4.666233063E-2
2.502828484E1,-1.065625995E-2,-5.126297474E-3,3.469085693E-2
2.504424554E1,2.702719718E-2,-1.125440747E-2,1.315593719E-2
2.506020623E1,4.229310900E-2,-4.361528158E-2,-1.328678131E-1
2.507622796E1,-1.626754552E-2,-3.411183134E-2,-2.334070206E-1
2.509215814E1,-3.140412271E-2,-1.112819463E-2,-1.161060333E-1
2.510811883E1,-1.574838161E-2,-1.903200895E-2,3.229618073E-2
2.512411004E1,4.025399685E-3,1.715618372E-2,1.064834595E-1
2.514010125E1,-1.981899142E-2,1.553103328E-3,1.447830200E-1
2.515612298E1,-2.307246625E-2,-7.491633296E-3,3.944110870E-2
2.517205316E1,1.494780183E-3,-2.012930065E-2,-1.083564758E-2
2.518804437E1,-9.639792144E-3,-2.874843776E-3,-2.041721344E-2
2.520403558E1,-2.693004161E-2,-1.447761059E-2,-1.042232513E-1
2.522002679E1,-4.770642519E-2,-1.202935725E-2,-6.072044373E-3
2.523601800E1,-2.009321749E-2,-6.488732994E-3,-1.805019379E-2
2.525200921E1,-2.857415378E-2,-2.034361660E-2,5.855560303E-2
2.526800042E1,-3.441351652E-2,-1.622828841E-2,4.658985138E-2
2.528399163E1,-4.389539361E-3,-2.800621465E-2,-5.634593964E-2
2.529998284E1,-1.255303621E-3,-1.562603563E-2,-1.568946838E-1
2.531600457E1,-1.280920208E-2,-3.011889011E-2,-8.268547058E-2
2.533193475E1,-3.406493366E-2,1.462572068E-2,2.981853485E-2
2.534789544E1,-4.811108112E-3,1.032004505E-2,8.726787567E-2
2.536388665E1,-6.390571594E-3,-1.476705074E-3,8.269309998E-3
2.537987786E1,8.004978299E-3,-1.709783077E-2,-1.401634216E-1
2.539586907E1,-1.185309887E-2,-1.450751722E-2,-1.617212296E-1
2.541186028E1,2.341300249E-3,-3.107057698E-2,-5.639553070E-2
2.542785149E1,-8.798032999E-3,-2.329157665E-2,1.231641769E-1
2.544384270E1,1.807034016E-3,-1.401351765E-2,1.926107407E-1
2.545983392E1,-4.878118634E-3,1.459426060E-2,5.378437042E-2
2.547582513E1,-2.724528313E-4,2.013771981E-2,-1.161651611E-1
2.549181634E1,-1.960889995E-2,7.222868502E-3,-8.980655670E-2
2.550780755E1,-6.305432320E-2,5.789503455E-3,5.949974060E-3
2.552379876E1,-3.226490319E-2,-1.106274500E-2,-7.547378540E-2
2.553975945E1,-4.098758101E-3,-3.449454159E-2,-1.162033081E-1
2.555572015E1,-8.749592304E-2,-3.750745207E-2,2.739620209E-2
2.557171136E1,2.526146919E-2,-3.394138068E-2,-1.043348312E-1
2.558767205E1,8.565691113E-2,1.423375309E-2,-1.474399567E-1
2.560366326E1,-1.350490749E-2,-6.629176438E-3,2.069034576E-1
2.561962396E1,-6.950753927E-2,-3.687062114E-2,2.164754868E-1
2.563561517E1,-3.392444551E-2,-6.959617138E-3,-7.560157776E-2
2.565160638E1,2.729497105E-2,1.750933379E-2,-3.317337036E-1
2.566753655E1,2.287730575E-3,2.337598056E-2,-1.832675934E-1
2.568352776E1,-4.218815267E-2,4.310022295E-2,1.135902405E-1
2.569951898E1,-3.802107275E-2,8.459366113E-2,1.805820465E-1
2.571551019E1,-3.613458574E-2,6.996795535E-2,1.135406494E-1
2.573150140E1,-3.203870356E-2,1.753813028E-2,1.032829285E-3
2.574749261E1,-3.597848862E-2,-6.972964108E-2,-8.522033691E-3
2.576342278E1,8.160144091E-3,-1.256009042E-1,-5.398654938E-2
2.577938348E1,4.997208714E-3,-1.159370542E-1,-4.916954041E-2
2.579540520E1,-6.919190288E-3,-6.214646250E-2,-8.265590668E-2
2.581133538E1,-1.794900000E-2,-6.389722228E-3,-6.826400757E-2
2.582729608E1,-3.310332447E-2,4.570128024E-2,-8.382797241E-3
2.584328729E1,-2.415449917E-2,6.238742918E-2,8.022594452E-2
2.585924798E1,-1.068377495E-2,2.847367525E-2,8.264255524E-2
2.587523919E1,2.913349122E-2,3.663770854E-2,-3.515243530E-3
2.589119988E1,1.105383039E-2,1.818172634E-2,-7.291793823E-2
2.590716058E1,-7.995635271E-3,1.266774535E-2,-8.265495300E-3
2.592318230E1,-2.868545055E-2,-1.471222937E-2,8.749198914E-2
2.593914300E1,1.739007235E-2,-1.329228282E-2,1.310348511E-3
2.595510369E1,-1.676875353E-2,-2.230378985E-2,-9.921264648E-2
2.597106439E1,-4.506796598E-2,-1.726853102E-2,-7.045364380E-2
2.598702508E1,-2.972416580E-2,2.072835714E-2,-1.297664642E-2
2.600301629E1,-4.841536283E-3,8.662305772E-3,1.401901245E-3
2.601900750E1,-1.601448655E-2,1.689158380E-2,5.888748169E-2
2.603496819E1,-2.262565494E-2,-7.942318916E-3,4.456520081E-2
2.605089837E1,-1.092214882E-2,-1.736731827E-2,-2.721118927E-2
2.606685906E1,-1.884157956E-2,-1.213445514E-2,-8.223724365E-2
2.608285027E1,-1.196108758E-2,-1.204591244E-2,-8.221340179E-2
2.609881097E1,-1.872034371E-2,-5.060620606E-3,-1.756095886E-2
2.611474114E1,-4.216495156E-2,9.182915092E-3,4.948425293E-2
2.613073235E1,-1.565554738E-2,7.504969835E-5,2.077960968E-2
2.614675408E1,-1.799440384E-2,1.763252914E-2,3.040790558E-2
2.616274529E1,-1.316060126E-2,1.886150241E-2,-1.251688004E-1
2.617870599E1,-2.543136477E-2,-1.976341009E-4,-4.852771759E-2
2.619466668E1,-6.409034133E-3,-7.405579090E-4,-1.059827805E-1
2.621062737E1,-4.005789757E-3,6.539925933E-3,-1.979255676E-2
2.622661858E1,-1.344467700E-2,-5.909234285E-3,3.288841248E-2
2.624260980E1,-2.030816674E-2,-1.077622175E-3,2.574157715E-2
2.625860101E1,-2.927249670E-2,2.314646542E-2,-1.488876343E-2
2.627462274E1,-3.110468388E-2,-3.645822406E-3,-1.241016388E-2
2.629055291E1,-4.029594362E-2,-1.097665727E-2,-3.148460388E-2
2.630651360E1,-9.359732270E-3,1.007214189E-3,1.168251038E-2
2.632247430E1,-4.902541637E-3,3.581821918E-3,1.414680481E-2
2.633846551E1,-9.671702981E-3,-1.553714275E-3,-7.316589355E-3
2.635448724E1,-2.607606351E-2,-4.110649228E-3,-5.271720886E-2
2.637041741E1,-3.545299172E-2,1.334327459E-2,-4.067230225E-2
2.638640862E1,-7.116541266E-3,-2.795873582E-2,2.471923828E-3
2.640239983E1,-1.251269877E-2,2.360880375E-3,7.309913635E-3
2.641839104E1,-1.064531505E-2,-3.707215190E-3,2.582550049E-3
2.643441277E1,-1.570580900E-2,6.183266640E-3,1.463508606E-2
2.645034295E1,-2.046728134E-2,-6.418004632E-3,-3.074932098E-2
2.646630364E1,-2.028687298E-2,2.859219909E-2,-1.048536301E-1
2.648229485E1,-1.838304102E-2,9.638369083E-3,-9.997844696E-2
2.649825555E1,-2.251203358E-2,7.492735982E-3,-4.004955292E-2
2.651421624E1,-1.117449999E-2,1.062463224E-2,4.856300354E-2
2.653020745E1,-3.353665769E-2,1.053780317E-2,6.062793732E-2
2.654613763E1,-3.633010387E-2,1.808279753E-2,4.880428314E-2
2.656215936E1,4.172816873E-3,7.253021002E-3,1.308250427E-2
2.657812005E1,-2.992868423E-2,-1.175597310E-3,-4.897308350E-2
2.659411126E1,-2.603804320E-2,1.427158713E-3,-6.557273865E-2
2.661004144E1,-2.687784284E-2,9.214282036E-4,-5.587291718E-2
2.662603265E1,-1.285952330E-2,3.911018372E-3,1.605796814E-2
2.664202386E1,-5.840390921E-3,-3.585606813E-3,2.816009521E-2
2.665795403E1,3.355570138E-3,-1.492571831E-2,-3.631210327E-2
2.667397576E1,-4.764616489E-3,9.508073330E-3,-8.641815186E-2
2.668996697E1,-5.622282624E-4,2.316644788E-2,-4.796314240E-2
2.670592767E1,-1.566973329E-2,3.496149182E-2,5.751419067E-2
2.672185784E1,-2.938775718E-2,2.592372894E-2,5.768775940E-2
2.673781854E1,-2.195107192E-2,2.167162299E-2,-7.853698730E-2
2.675384026E1,-3.600993752E-2,3.455311060E-3,-6.467819214E-3
2.676983148E1,-7.422827929E-2,-1.184320450E-2,9.432125092E-2
2.678579217E1,2.297943085E-2,8.415251970E-3,-6.343078613E-2
2.680175286E1,5.223364383E-2,4.688447714E-2,-4.882526398E-2
2.681777459E1,7.233597338E-3,7.740169764E-3,1.572475433E-1
2.683379632E1,-3.503334522E-2,-3.128761053E-2,1.622009277E-2
2.684972649E1,7.979795337E-3,-4.239657521E-2,-2.660112381E-1
2.686568719E1,5.695074797E-4,-1.308566332E-2,-2.467069626E-1
2.688167840E1,-5.521021038E-2,1.497709751E-2,-3.369426727E-2
2.689766961E1,-4.519696534E-2,7.362708449E-2,1.864233017E-1
2.691369134E1,3.343202174E-3,1.012727618E-1,2.127799988E-1
2.692962151E1,-6.628900766E-3,1.052806675E-1,9.335708618E-2
2.694558221E1,-1.120663434E-2,4.034265876E-2,-2.828502655E-2
2.696157342E1,-2.659156919E-3,-2.245911956E-2,-8.766460419E-2
2.697753411E1,-2.137886733E-2,-7.419273257E-2,-9.681987762E-2
2.699352532E1,-2.812904119E-2,-6.121361256E-2,-5.817985535E-2
2.700951653E1,-1.038806885E-2,-2.967849374E-2,1.631069183E-2
2.702544671E1,-3.527346253E-2,4.842936993E-3,2.614116669E-2
2.704146844E1,-9.668484330E-3,6.323978305E-2,2.400779724E-2
2.705745965E1,-1.972141117E-2,5.451604724E-2,-1.642131805E-2
2.707345086E1,-8.051477373E-3,2.960115671E-2,-2.335071564E-2
2.708941155E1,-1.337550581E-3,2.262160182E-2,-4.948616028E-2
2.710537225E1,-6.893098354E-3,1.376000047E-2,1.772975922E-2
2.712136346E1,-4.829511046E-3,1.596343517E-2,8.499240875E-2
2.713732415E1,-6.109855324E-2,-3.034651279E-3,1.020669937E-1
2.715331536E1,1.008270681E-2,2.424618602E-2,-5.076026917E-2
2.716924554E1,-9.436726570E-3,-7.207006216E-3,-1.246242523E-1
2.718523675E1,-3.399791569E-2,2.561062574E-3,-5.976104736E-2
2.720122796E1,-2.264606953E-2,2.456763387E-2,-5.249023438E-2
2.721721917E1,-2.103050798E-2,2.792015672E-2,1.008033752E-1
2.723314935E1,-2.161381394E-2,2.978020906E-2,7.700157166E-2
2.724914056E1,-1.736612618E-2,2.477282286E-2,6.048583984E-2
2.726510125E1,-8.868955076E-3,3.045240045E-2,4.642772675E-2
2.728103143E1,1.520636678E-2,2.143138647E-2,-3.530502319E-3
2.729702264E1,-6.597921252E-3,2.038711309E-2,-1.043319702E-2
2.731304437E1,-2.363245934E-2,3.820478916E-3,-1.979064941E-2
2.732903558E1,-1.584214717E-2,9.657263756E-3,1.630592346E-2
2.734499627E1,-1.035966724E-2,1.851463318E-2,-3.013610840E-4
2.736092645E1,-3.042316437E-2,8.465051651E-3,4.294013977E-2
2.737691766E1,-2.865477651E-2,5.814611912E-3,5.744266510E-2
2.739293939E1,-1.001129299E-2,-9.008944035E-3,5.759239197E-2
2.740893060E1,-1.982628554E-2,-2.937436104E-3,2.665710449E-2
2.742492181E1,-4.366636276E-2,9.977459908E-3,-2.101707458E-2
2.744088250E1,-1.790639013E-2,6.891191006E-3,3.088951111E-3
2.745687371E1,-2.090715617E-2,4.057765007E-3,3.436660767E-2
2.747289544E1,-2.134681493E-2,1.154303551E-3,8.188247681E-3
2.748888665E1,-4.612059891E-2,2.236819267E-2,-2.278900146E-2
2.750487786E1,-4.989485443E-2,3.220736980E-2,-4.662036896E-2
2.752080804E1,-4.660531878E-2,2.825164795E-2,6.129264832E-3
2.753679925E1,-4.808869585E-2,2.826792002E-2,6.132125854E-2
2.755282098E1,-2.648915723E-2,2.873104811E-2,3.044223785E-2
2.756875115E1,5.709890276E-3,-8.276522160E-3,-2.188682556E-2
2.758474236E1,2.774665132E-2,-4.569888115E-3,-9.576416016E-2
2.760073358E1,2.214537188E-2,-3.463327885E-3,-1.147089005E-1
2.761669427E1,-1.786658540E-2,3.095149994E-3,1.460361481E-2
2.763265496E1,-1.706797630E-3,3.032380342E-2,1.605939865E-1
2.764864617E1,5.474206060E-3,7.299453020E-2,6.965541840E-2
2.766457635E1,-1.498533785E-2,7.068175077E-2,-1.504526138E-1
2.768059808E1,-5.065885186E-2,2.340793610E-2,-3.491897583E-1
2.769658929E1,1.765109599E-3,-1.931357384E-2,-4.501886368E-1
2.771258050E1,4.205070063E-2,-4.205238819E-2,-3.882884979E-1
2.772854119E1,7.430557907E-2,-2.522945404E-2,-3.460178375E-1
2.774453240E1,6.390446424E-2,-2.729219198E-2,-1.145963669E-1
2.776052361E1,3.602677584E-2,2.849060297E-2,2.463798523E-1
2.777645379E1,-1.066140831E-2,8.688312769E-2,4.642276764E-1
2.779247552E1,-2.323318273E-2,1.380341053E-1,4.409132004E-1
2.780846673E1,-6.210118532E-3,1.462282538E-1,1.378746033E-1
2.782442742E1,-3.214038908E-2,1.348538995E-1,-1.293516159E-1
2.784035760E1,-5.263693631E-3,5.871987343E-2,-2.798099518E-1
2.785631829E1,-4.041492939E-3,-3.420048952E-2,-2.226819992E-1
2.787234002E1,1.386637986E-2,-1.244063377E-1,-8.949947357E-2
2.788833123E1,-2.735485882E-2,-1.524240971E-1,-6.694793701E-3
2.790429192E1,-3.344443440E-2,-1.205735505E-1,7.149219513E-2
2.792025262E1,-7.985592633E-2,-3.762069345E-2,1.476564407E-1
2.793624383E1,-3.264840692E-2,1.148140430E-2,1.428327560E-1
2.795223504E1,-3.266961128E-2,6.082612276E-2,2.585315704E-2
2.796822625E1,-8.467599750E-3,7.641845942E-2,-1.460657120E-1
2.798421746E1,1.056171209E-2,5.941128731E-2,-1.505842209E-1
2.800020867E1,1.098728180E-2,3.784257174E-2,-2.610015869E-2
2.801619988E1,-1.893901080E-2,3.350692987E-2,-5.501174927E-2
2.803219109E1,2.540075779E-2,6.726276875E-2,-4.331684113E-2
2.804815179E1,-6.792202592E-3,3.388428688E-2,1.406412125E-1
2.806411248E1,-4.335894436E-2,-2.120631933E-2,9.514808655E-2
2.808010369E1,-4.429595917E-2,-6.438812613E-2,-2.016086578E-1
2.809606439E1,-1.558067650E-2,-7.088610530E-2,-2.781324387E-1
2.811205560E1,-2.591056377E-2,-3.933775425E-2,-2.040672302E-1
2.812804681E1,-2.405651659E-2,-1.646280289E-2,-5.596637726E-2
2.814397698E1,-1.779458299E-2,3.953742981E-2,2.358093262E-1
2.815999871E1,-4.357248545E-4,6.163144112E-2,1.974630356E-1
2.817595940E1,3.292227909E-2,5.136334896E-2,1.115541458E-1
2.819195062E1,-8.288845420E-4,2.843046188E-2,-3.643989563E-2
2.820791131E1,-2.326900512E-2,-2.731633186E-2,-7.672786713E-2
2.822387200E1,-1.690758020E-2,-3.513765335E-2,-4.770851135E-2
2.823986321E1,-1.512248814E-2,-3.837805986E-2,-3.556632996E-2
2.825585442E1,-2.254322916E-2,-1.403248310E-2,1.242542267E-2
2.827181512E1,-2.972877398E-2,2.684527636E-2,2.212429047E-2
2.828780633E1,-1.060568169E-2,6.001800299E-2,1.269721985E-2
2.830379754E1,-2.992803603E-2,4.325830936E-2,3.252029419E-3
2.831978875E1,-2.725111321E-2,2.186679840E-2,-2.056312561E-2
2.833577996E1,-1.480694488E-2,1.987642050E-2,2.025222778E-2
2.835174066E1,-6.609998643E-3,9.976267815E-3,7.547760010E-2
2.836773187E1,-3.447869420E-2,-3.713667393E-3,-3.202438354E-2
2.838372308E1,-3.647973016E-2,8.826553822E-3,-5.093574524E-2
2.839971429E1,-1.165775210E-2,-1.634061337E-3,-7.647514343E-3
2.841570550E1,-1.061036810E-2,1.960420609E-2,-4.100418091E-2
2.843166619E1,-2.848390490E-3,5.632400513E-3,-6.961536407E-2
2.844765740E1,-9.604614228E-3,2.676606178E-2,9.419441223E-3
2.846361810E1,-9.247735143E-3,3.849118948E-2,3.337860107E-2
2.847957879E1,1.569300145E-2,2.531439066E-2,2.866744995E-2
2.849553948E1,9.504549205E-3,2.607268095E-2,4.825592041E-3
2.851156121E1,4.450708628E-3,5.169212818E-3,-7.044792175E-3
2.852755242E1,1.260062680E-2,6.025731564E-3,-2.851200104E-2
2.854351312E1,1.298482344E-2,-1.949667931E-4,-1.646900177E-2
2.855947381E1,-4.384014383E-2,-4.031956196E-3,-2.357864380E-2
2.857546502E1,-9.008202702E-3,8.820593357E-3,-2.588939667E-2
2.859151727E1,-2.143406495E-2,5.552172661E-4,-5.216503143E-2
2.860744744E1,-3.843272105E-2,-4.402875900E-3,-4.018497467E-2
2.862340814E1,-1.965358108E-2,-4.289329052E-3,-2.582836151E-2
2.863939935E1,-2.225557342E-2,-6.968855858E-3,1.488780975E-2
2.865539056E1,-1.490612328E-2,-9.372234344E-4,1.495742798E-2
2.867141229E1,-1.711189747E-2,2.605628967E-2,-1.697540283E-3
2.868734246E1,-1.724556461E-2,4.353481531E-2,-8.781433105E-3
2.870333367E1,-2.511217818E-2,3.509604931E-2,-2.546977997E-2
2.871932488E1,-4.002622515E-2,2.038252354E-2,8.067131042E-3
2.873528558E1,-4.749345779E-2,1.844662428E-2,3.437423706E-2
2.875124627E1,-2.319115028E-2,1.907265186E-2,5.588626862E-2
2.876723748E1,-1.765988395E-2,2.659893036E-2,6.305408478E-2
2.878316766E1,-2.660228312E-2,2.928256989E-3,2.952194214E-2
2.879918939E1,2.896197140E-3,1.831495762E-2,-1.658439636E-3
2.881515008E1,1.358561218E-3,-1.057791710E-2,-4.009437561E-2
2.883114129E1,-1.705736294E-2,-1.644819975E-2,-6.424999237E-2
2.884713250E1,4.875630140E-3,-1.895123720E-2,-5.015754700E-2
2.886309319E1,-1.213006303E-2,-1.755177975E-3,2.854633331E-2
2.887905389E1,-2.699679881E-2,1.932781935E-2,4.744720459E-2
2.889501458E1,4.456084222E-3,4.609256983E-2,6.404590607E-2
2.891097527E1,1.040546596E-2,2.628266811E-2,2.564811707E-2
2.892696648E1,2.453960478E-4,4.464352131E-2,-5.557060242E-3
2.894295770E1,-4.642821848E-3,3.471463919E-2,-4.875373840E-2
2.895894891E1,-5.142226815E-3,9.567975998E-3,-7.049083710E-2
2.897494012E1,-2.087076008E-2,-1.090413332E-2,-8.038902283E-2
2.899090081E1,-1.557979733E-2,-8.812546730E-4,-5.207633972E-2
2.900689202E1,-2.830728889E-3,2.374649048E-3,1.640319824E-4
2.902288323E1,4.845857620E-5,-1.193118095E-2,6.681632996E-2
2.903890496E1,-3.144613653E-2,1.463007927E-2,6.894207001E-2
2.905486566E1,-3.184138983E-2,7.092356682E-4,-1.740264893E-2
2.907085687E1,-4.847668111E-3,5.571424961E-3,-9.414100647E-2
2.908681756E1,-3.511031717E-2,5.542218685E-3,-2.255630493E-2
2.910280877E1,-7.739759982E-3,1.648986340E-2,-1.807689667E-2
2.911883050E1,4.664509371E-2,2.817612886E-2,-9.024143219E-2
2.913479119E1,2.118211240E-2,9.722083807E-3,1.232242584E-2
2.915075189E1,-3.936430812E-2,-1.407736540E-2,1.292724609E-1
2.916671258E1,-1.877929270E-2,-3.761395812E-2,-7.928180695E-2
2.918270379E1,-6.302438676E-3,-8.534580469E-3,-5.319023132E-2
2.919869500E1,2.565771341E-3,3.170806170E-2,-7.766246796E-2
2.921468621E1,-2.100703120E-2,5.602392554E-2,-3.898620605E-3
2.923067742E1,-4.704949260E-2,7.561802864E-2,8.924102783E-2
2.924666863E1,-1.717102528E-2,7.203909755E-2,1.535177231E-1
2.926262933E1,8.362457156E-3,4.300835729E-2,6.953716278E-2
2.927855950E1,-2.185728401E-2,-2.691444755E-2,-7.179737091E-2
2.929452020E1,-3.878918290E-2,-7.462266088E-2,-1.245822906E-1
2.931054192E1,-1.815835387E-2,-9.056127071E-2,-1.153564453E-1
2.932653314E1,-2.062015980E-2,-5.831977725E-2,-4.128551483E-2
2.934249383E1,-1.808317006E-2,-2.875524759E-2,1.584339142E-2
2.935845452E1,-2.870835364E-2,1.504409313E-2,3.468513489E-2
2.937444573E1,6.986595690E-3,4.417714477E-2,1.284980774E-2
2.939046746E1,1.183807105E-2,5.625307560E-2,-3.290653229E-2
2.940645867E1,-2.677684277E-2,4.726824164E-2,-2.361106873E-2
2.942241937E1,-1.581178606E-2,5.053907633E-2,-9.538650513E-3
2.943834954E1,-2.405948937E-3,7.558852434E-3,3.330135345E-2
2.945434075E1,-4.429496080E-2,-1.759913564E-2,1.394271851E-2
2.947039300E1,-1.190956682E-2,-1.993519068E-2,2.814483643E-2
2.948635369E1,4.027295858E-2,-3.999531269E-2,-1.746463776E-2
2.950231439E1,-1.061324775E-2,-4.594406486E-2,-1.588315964E-1
2.951830560E1,-6.511348486E-2,-1.670300961E-3,-1.087532043E-1
2.953426629E1,-3.238902986E-2,-2.717971802E-4,7.530403137E-2
2.955022698E1,-4.766181111E-3,3.117832541E-2,1.588439941E-1
2.956618768E1,-2.182684839E-3,3.539845347E-2,1.036424637E-1
2.958214837E1,1.237727702E-3,9.015738964E-3,-1.134490967E-2
2.959817010E1,3.670156002E-5,-1.938641071E-3,-9.763240814E-2
2.961416131E1,8.482269943E-3,-2.402323484E-2,-1.050090790E-1
2.963015252E1,-2.560311556E-2,-2.432361245E-2,-5.020523071E-2
2.964614373E1,-5.211279541E-2,-3.785270452E-2,1.655006409E-2
2.966207391E1,-4.615128785E-2,-2.679744363E-2,-4.843425751E-2
2.967806512E1,-3.083600104E-2,3.682106733E-3,-6.768989563E-2
2.969402581E1,-1.993899792E-2,-2.625061572E-2,6.322860718E-3
2.970998650E1,-7.329769433E-3,7.607683539E-3,6.599044800E-2
2.972597772E1,-4.198238254E-3,1.623854041E-3,1.078224182E-2
2.974196893E1,-2.425695211E-2,1.630289853E-2,-5.636405945E-2
2.975796014E1,1.818194985E-3,1.236289740E-2,-4.689884186E-2
2.977389031E1,-3.232742101E-2,-5.095258355E-3,-6.327629089E-3
2.978991204E1,-1.675150543E-2,-7.998049259E-4,-1.364803314E-2
2.980590325E1,8.920058608E-4,-1.840151846E-2,-8.988380432E-3
2.982186395E1,-2.504444867E-2,-1.926971972E-2,1.003646851E-2
2.983782464E1,-2.454518527E-2,-1.088429987E-2,3.146457672E-2
2.985381585E1,-2.373132110E-2,-1.997306943E-2,3.376388550E-2
2.986983758E1,-2.016731352E-2,-8.074954152E-3,-3.335285187E-2
2.988582879E1,3.608316183E-5,-1.777753234E-2,-7.652568817E-2
2.990182000E1,9.707808495E-4,6.064772606E-6,-6.943893433E-2
2.991775018E1,2.781323344E-2,2.150207758E-3,-7.434558868E-2
2.993371087E1,-6.170116365E-3,-2.131912112E-2,-5.772495270E-2
2.994973260E1,-2.638882399E-2,-1.260563731E-3,-5.787086487E-2
2.996572381E1,-2.228838205E-2,4.783451557E-3,9.028434753E-3
2.998168450E1,-3.041127324E-2,-4.721909761E-3,6.158256531E-2
2.999764520E1,-3.905972093E-2,5.050063133E-3,4.712963104E-2
3.001363641E1,-3.864208609E-2,2.098682523E-2,-2.238082886E-2
3.002965814E1,-3.686568886E-2,1.977974176E-2,7.575893402E-2
3.004564935E1,9.634077549E-3,2.630978823E-3,-2.244663239E-2
3.006164056E1,5.947658420E-2,4.576146603E-4,-2.427520752E-1
3.007763177E1,-1.659653336E-2,-2.472528815E-2,-1.087446213E-1
3.009362298E1,-4.088037461E-2,-5.666833371E-2,9.944248199E-2
3.010958367E1,-2.533590049E-2,-5.010194331E-2,7.062625885E-2
3.012557488E1,2.943471819E-2,3.353185952E-3,1.156806946E-3
3.014156609E1,-4.705414176E-3,1.575998962E-2,-5.152416229E-2
3.015752679E1,-4.102655500E-2,2.499460429E-2,-1.802635193E-2
3.017348748E1,-5.684666336E-2,4.986137152E-2,2.742099762E-2
3.018950921E1,-1.604422182E-2,5.499921739E-2,1.135683060E-1
3.020550042E1,1.231019199E-2,1.262217015E-2,-6.363391876E-2
3.022146111E1,-1.979801804E-2,-2.067093179E-2,-6.606006622E-2
3.023736077E1,-3.048439324E-2,-5.538154766E-2,-9.961986542E-2
3.025335198E1,-3.091558814E-2,-9.808009863E-2,-2.065467834E-2
3.026937371E1,1.466344297E-2,-9.773616493E-2,2.719593048E-2
3.028530389E1,-6.795294583E-3,-3.889840841E-2,-6.346702576E-3
3.030126458E1,-2.078752220E-2,6.382677704E-3,-4.466247559E-2
3.031725579E1,-1.232042909E-2,2.811229229E-2,-5.184459686E-2
3.033321648E1,-1.764041185E-2,3.662151843E-2,-2.550792694E-2
3.034917718E1,1.016543061E-2,2.211973444E-2,-8.754730225E-3
3.036516839E1,4.242457449E-3,2.973709255E-3,-1.594352722E-2
3.038109857E1,-1.343777031E-2,2.570559457E-2,8.700180054E-2
3.039708978E1,-3.724562377E-2,-2.015348524E-3,1.420660019E-1
3.041305047E1,-2.324174345E-2,-3.623663262E-2,1.133337021E-1
3.042904168E1,3.168157488E-2,-4.916130751E-2,-7.579708099E-2
3.044503289E1,-4.902709275E-2,-4.474493489E-2,-2.888612747E-1
3.046102410E1,-6.462726742E-2,-1.497324556E-3,-1.571760178E-1
3.047698480E1,-1.390310377E-2,5.986120552E-3,9.179878235E-2
3.049294549E1,3.644204140E-2,2.469320968E-2,1.779708862E-1
3.050896722E1,9.933128953E-3,2.019844577E-2,8.458900452E-2
3.052489739E1,-2.413710952E-2,-4.100905731E-3,-4.231071472E-2
3.054085809E1,-1.472805440E-2,-2.522543445E-2,-1.261100769E-1
3.055684930E1,-1.848541200E-3,-3.600471467E-2,-1.021652222E-1
3.057284051E1,-3.338494897E-2,-2.946377918E-2,1.277160645E-2
3.058886224E1,-2.387121320E-2,-8.641966619E-3,7.504463196E-2
3.060482293E1,9.374037385E-3,-4.337531514E-3,2.718639374E-2
3.062081414E1,-2.014930546E-2,-1.644769125E-2,-5.180168152E-2
3.063680535E1,-2.637748420E-2,5.194728263E-3,-7.573032379E-2
3.065276605E1,-2.341382205E-2,-2.991297748E-3,-3.741359711E-2
3.066872674E1,-1.877039671E-2,2.074244618E-2,-6.287574768E-3
3.068468743E1,-2.224788070E-3,1.071699243E-2,-2.304363251E-2
3.070064812E1,-1.892274618E-2,7.737994194E-3,-2.064132690E-2
3.071663934E1,-2.052283287E-2,-1.717410050E-2,5.359840393E-2
3.073260003E1,-3.607738018E-2,-1.450847648E-2,9.911251068E-2
3.074856072E1,4.131644964E-4,-8.822150528E-3,3.447818756E-2
3.076455193E1,-1.690421999E-2,-8.783059195E-3,-9.960460663E-2
3.078054315E1,-2.763803303E-2,-7.163396105E-3,-1.594705582E-1
3.079653436E1,-1.385107636E-2,-3.770300373E-2,-7.566356659E-2
3.081252557E1,5.562111735E-3,-2.280151099E-2,-8.592605591E-3
3.082848626E1,-2.054274082E-2,-3.889587894E-2,-2.770709991E-2
3.084447747E1,-1.116189361E-2,-3.695730120E-2,-1.162586212E-1
3.086046868E1,-6.100535393E-3,-1.089831442E-2,-7.790565491E-2
3.087645989E1,-6.034424901E-2,-1.811385155E-3,1.112928391E-1
3.089245110E1,-5.508276820E-2,1.921258867E-3,3.052577972E-1
3.090841180E1,9.228304029E-3,2.761349455E-2,1.352415085E-1
3.092440301E1,-1.029919088E-2,1.342371479E-2,-1.233844757E-1
3.094039422E1,-3.260715306E-2,1.162428409E-3,-2.646846771E-1
3.095638543E1,4.094950855E-2,-2.314276248E-2,-3.772077560E-1
3.097237664E1,7.763206959E-4,-2.006951720E-2,-2.518558502E-2
3.098833733E1,-6.231640279E-2,-5.699911714E-2,3.460102081E-1
3.100432855E1,-1.488743722E-2,-4.027519375E-2,2.311143875E-1
3.102028924E1,1.317053288E-2,-3.254131228E-2,-1.065244675E-1
3.103624993E1,2.594544739E-2,-1.412180066E-2,-2.573766708E-1
3.105218011E1,-2.199116349E-2,1.116672158E-2,-1.351995468E-1
3.106820184E1,-6.857940555E-2,4.591055959E-2,1.570005417E-1
3.108419305E1,-3.987003863E-2,7.898035645E-2,2.528104782E-1
3.110015374E1,-1.187829673E-2,5.654449388E-2,4.925155640E-2
3.111611443E1,-4.440940917E-2,-2.882242203E-2,-1.375846863E-1
3.113210565E1,-2.457059920E-2,-8.553321660E-2,-2.429666519E-1
3.114812737E1,-2.874927223E-2,-9.227091074E-2,-8.300781250E-3
3.116411858E1,-1.287153363E-2,-6.288621575E-2,5.881023407E-2
3.118007928E1,7.379755378E-3,-3.043616563E-2,1.330833435E-1
3.119607049E1,-2.976709604E-2,3.709056973E-2,3.494167328E-2
3.121206170E1,-3.278887272E-2,1.684135944E-2,-1.302461624E-1
3.122805291E1,-9.349688888E-3,1.311238855E-2,-1.278152466E-1
3.124401360E1,-1.304142177E-2,9.833738208E-3,-3.677749634E-2
3.125994378E1,-8.696541190E-3,5.919516087E-3,7.820224762E-2
3.127593499E1,-9.857639670E-3,-1.316610724E-2,7.106113434E-2
3.129189568E1,-1.119814813E-2,6.040558219E-3,5.191898346E-2
3.130785638E1,-5.057621002E-2,-8.396655321E-4,1.360130310E-2
3.132384759E1,1.428794116E-2,-4.034972936E-2,-2.232360840E-2
3.133983880E1,4.438221455E-3,-2.308848500E-2,-1.444225311E-1
3.135579949E1,-6.235621870E-2,-1.334732771E-2,6.450653076E-3
3.137179070E1,-5.225643516E-3,-1.438163221E-2,9.029388428E-2
3.138778191E1,4.450929165E-2,1.672221720E-2,5.201244354E-2
3.140377312E1,1.965264976E-2,1.236914098E-2,-3.897094727E-2
3.141976434E1,-2.603150904E-2,-8.933812380E-3,-1.347665787E-1
3.143575555E1,-3.051750362E-2,-3.047201037E-2,-1.060667038E-1
3.145168572E1,-3.275662661E-2,-4.677504301E-2,2.801227570E-2
3.146770745E1,-4.240474105E-2,-2.182406932E-2,2.028293610E-1
3.148369866E1,-4.995080829E-2,-6.482176483E-3,1.789274216E-1
3.149968987E1,-1.793769002E-2,-9.823590517E-5,-1.499557495E-2
