"Time (s)","Linear Acceleration x (m/s^2)","Linear Acceleration y (m/s^2)","Linear Acceleration z (m/s^2)"
3.626312900E-2,-1.490224898E-2,-5.056262016E-3,6.576251984E-2
5.225434000E-2,-7.917344570E-3,2.137774229E-2,-1.090173721E-1
6.824555000E-2,1.103922725E-2,-7.255554199E-3,1.547908783E-2
8.420624400E-2,-1.070556045E-2,-2.152341604E-2,1.184272766E-1
1.001669370E-1,-7.673487067E-3,-3.942811489E-2,-9.526252747E-2
1.160971130E-1,2.085997164E-2,3.488934040E-2,2.399244308E-1
1.320883240E-1,5.308371782E-2,9.717345238E-3,2.305326462E-1
1.480490170E-1,2.568861842E-2,-3.097534180E-2,-2.528724670E-1
1.640402280E-1,-1.461124420E-2,-3.322273493E-2,-2.001180649E-1
1.799704040E-1,5.240544677E-3,9.786903858E-3,-1.618385315E-2
1.959616150E-1,2.798496187E-2,1.555460691E-2,1.827020645E-1
2.119528260E-1,3.275187314E-2,1.239919662E-2,1.704740524E-1
2.278830020E-1,1.856578887E-2,-1.322174072E-2,1.681833267E-1
2.438742130E-1,-1.485368609E-2,4.280853271E-2,-3.492641449E-2
2.598654240E-1,-3.413498402E-3,2.483713627E-2,-1.135368347E-1
2.758261170E-1,-1.189635694E-2,-2.805888653E-2,2.792072296E-2
2.917562930E-1,-2.022887766E-2,-6.663739681E-2,-1.178073883E-2
3.077475040E-1,-1.545520127E-2,-3.447598219E-2,7.110309601E-2
3.237387150E-1,-1.829142869E-2,-6.267428398E-3,4.105567932E-3
3.397299250E-1,-9.385451674E-3,3.620821238E-2,3.767776489E-2
3.557211360E-1,6.335303187E-3,3.388732672E-2,3.290653229E-2
3.717123470E-1,-1.855695248E-2,2.278816700E-2,4.484176636E-2
3.876120060E-1,-1.370872557E-2,1.777970791E-2,1.117439270E-1
4.035726990E-1,-3.104582429E-3,2.978771925E-2,3.735351562E-2
4.195639100E-1,-9.286165237E-3,2.637279034E-2,4.921817780E-2
4.355246030E-1,2.083005011E-2,2.525848150E-2,-5.862808228E-2
4.514547790E-1,1.811689138E-2,-1.985907555E-3,3.488540649E-3
4.674765080E-1,2.722725272E-3,2.691650391E-2,-3.500270844E-2
4.834372010E-1,-1.629933715E-3,5.572348833E-2,4.384803772E-2
4.994284120E-1,3.841206431E-3,5.444449186E-2,1.012277603E-1
5.154196230E-1,-9.967416525E-3,1.066601276E-2,-4.718208313E-2
5.314108340E-1,2.078980207E-2,3.830605745E-2,3.189945221E-2
5.473715270E-1,7.961213589E-3,2.111089230E-2,-3.030681610E-2
5.633627380E-1,1.189167798E-2,-1.739376783E-2,8.225059509E-2
5.793234310E-1,1.600022614E-2,1.549196243E-2,-1.586055756E-2
5.953146420E-1,3.663602471E-2,7.818341255E-3,3.686141968E-2
6.113058530E-1,7.127195597E-3,1.382452250E-2,-3.248405457E-2
6.272970640E-1,1.635432243E-3,4.135775566E-2,-6.591510773E-2
6.432882750E-1,6.428658962E-4,2.174991369E-2,-1.558971405E-2
6.592794860E-1,-7.495865226E-3,-7.034063339E-3,2.752971649E-2
6.752096620E-1,-1.015886664E-3,-2.862656116E-2,-1.315498352E-2
6.911703550E-1,-8.523598313E-3,-1.350039244E-2,-2.995395660E-2
7.071310490E-1,-6.486549973E-3,2.164852619E-2,2.741527557E-2
7.231222590E-1,-2.376478910E-2,3.185129166E-2,1.062774658E-2
7.390829530E-1,-2.182871103E-2,4.320818186E-2,1.546382904E-2
7.550436460E-1,-2.714738250E-3,3.711855412E-2,1.793766022E-2
7.710348570E-1,1.808851957E-3,3.137850761E-2,1.800060272E-2
7.869955500E-1,-1.285313070E-2,2.795082331E-2,2.764797211E-2
8.029867610E-1,-1.529164612E-2,3.686654568E-2,2.050685883E-2
8.189779720E-1,4.070803523E-3,5.212426186E-4,3.728866577E-2
8.348776310E-1,5.867108703E-3,-6.854534149E-4,-5.770683289E-3
8.508688410E-1,-6.103903055E-3,-1.026225090E-2,-4.407787323E-2
8.668905700E-1,-1.492841542E-2,-6.954312325E-3,-4.654407501E-2
8.828817810E-1,-7.279887795E-3,1.906931400E-2,-1.316261292E-2
8.988424740E-1,5.583912134E-3,4.042494297E-2,7.527065277E-2
9.148031680E-1,3.158590198E-2,4.962927103E-2,1.088190079E-1
9.307943790E-1,1.622825861E-3,-1.597768068E-2,-5.375671387E-2
9.467550720E-1,-1.168727875E-2,-1.473331451E-2,-1.277303696E-1
9.627462830E-1,9.003147483E-3,-1.526004076E-2,4.949092865E-2
9.786764590E-1,-6.195560098E-3,2.523839474E-3,-3.079414368E-3
9.946676700E-1,-2.167634666E-2,-2.160608768E-3,-1.059150696E-1
1.010689398E0,3.699594736E-2,8.410626650E-2,3.106470108E-1
1.026619574E0,3.432868421E-2,8.616447449E-4,1.428508759E-2
1.042610785E0,1.105014980E-2,-1.754271984E-2,-2.890787125E-1
1.058632513E0,-5.276069045E-3,-1.472258568E-2,-1.859064102E-1
1.074623724E0,-8.970499039E-6,2.809506655E-2,3.650951385E-2
1.090645453E0,4.055753350E-3,3.139805794E-2,1.320838928E-1
1.106545111E0,1.784615219E-2,2.834653854E-2,1.488990784E-1
1.122536322E0,2.415262163E-2,5.133962631E-2,1.444950104E-1
1.138497015E0,6.210595369E-3,5.464702845E-2,-7.518959045E-2
1.154488226E0,-1.017586887E-2,2.577024698E-2,9.130477905E-3
1.170479437E0,-4.801164567E-2,8.834779263E-3,-3.359413147E-2
1.186440131E0,-2.924609184E-2,1.369714737E-3,-9.466171265E-3
1.202400824E0,-6.948858500E-4,-9.008765221E-3,3.847599030E-2
1.218392035E0,-1.527340710E-2,-1.908326149E-2,-4.582405090E-3
1.234383246E0,-4.077240825E-3,2.791464329E-2,5.295562744E-2
1.250404974E0,-4.811064899E-2,2.389013767E-3,4.590034485E-2
1.266365668E0,7.754102349E-3,4.758691788E-2,-6.556510925E-3
1.282356879E0,3.094509244E-3,2.980411053E-3,3.663825989E-2
1.298287054E0,8.675903082E-4,3.494447470E-2,3.434371948E-2
1.314308783E0,-3.357446194E-2,3.558433056E-2,-2.999782562E-2
1.330299994E0,8.657574654E-5,3.644973040E-2,-3.947448730E-2
1.346260687E0,-1.839646697E-2,4.859089851E-3,-7.042121887E-2
1.362251898E0,3.261998296E-3,-5.533933640E-3,1.458168030E-3
1.378182074E0,-1.229509711E-3,3.003221750E-2,-5.708694458E-3
1.394203802E0,1.383075118E-2,2.632057667E-2,3.027820587E-2
1.410195013E0,1.427772641E-2,4.501014948E-2,-2.220916748E-2
1.426155707E0,-2.005961537E-2,3.424400091E-2,4.392623901E-3
1.442146918E0,5.166217685E-3,1.449400187E-2,4.772186279E-2
1.458077093E0,2.077518404E-2,6.964921951E-3,4.075622559E-2
1.474068304E0,-4.399403930E-3,1.367419958E-2,-2.844619751E-2
1.490090033E0,3.794044256E-3,9.122371674E-3,-2.347373962E-2
1.506050726E0,2.162119746E-2,5.480408669E-3,-8.989334106E-3
1.522041937E0,1.097899675E-2,-7.326602936E-4,-2.083301544E-2
1.538002631E0,1.016749442E-2,-5.793571472E-5,2.479648590E-2
1.553993841E0,-1.034478843E-2,-4.796326160E-3,1.541900635E-2
1.570015570E0,-1.155400276E-2,2.612054348E-2,-2.267360687E-2
1.585945746E0,-7.058069110E-3,2.176141739E-2,1.414299011E-3
1.601906439E0,-2.906127274E-2,3.662705421E-3,1.588630676E-2
1.617897650E0,-2.249759436E-2,1.418066025E-2,1.121711731E-2
1.633858343E0,3.212049603E-3,4.574745893E-2,-7.781028748E-3
1.649788519E0,4.618033767E-3,6.500822306E-2,-9.985923767E-3
1.665779730E0,-3.606647253E-3,4.615539312E-2,-2.626419067E-3
1.681770941E0,-1.179192960E-2,2.280849218E-2,-7.260322571E-3
1.697762152E0,-2.717757225E-2,-5.136132240E-4,-2.316474915E-3
1.713692328E0,-2.087393403E-2,1.693928242E-2,-2.132511139E-2
1.729683539E0,-1.201514900E-2,3.226703405E-2,-2.049446106E-3
1.745705267E0,-2.925708890E-3,1.901316643E-2,1.481723785E-2
1.761696478E0,-8.118405938E-3,1.792961359E-2,3.406047821E-2
1.777657172E0,-3.106042743E-3,1.407259703E-2,7.486343384E-2
1.793648383E0,1.879999042E-2,2.380764484E-2,-2.793216705E-2
1.809639593E0,-7.190600038E-3,-4.011213779E-3,-8.768844604E-2
1.825600287E0,-9.213432670E-3,1.603287458E-2,-5.185031891E-2
1.841591498E0,1.764537394E-2,2.950459719E-2,7.013225555E-2
1.857521674E0,-8.866310120E-3,4.378569126E-2,1.347856522E-1
1.873512884E0,2.777636051E-3,2.868384123E-2,-8.628845215E-3
1.889534613E0,1.103281975E-4,1.608836651E-2,-1.328964233E-1
1.905464789E0,4.776716232E-3,9.813308716E-3,4.660511017E-2
1.921425482E0,-2.673149109E-2,6.512820721E-3,-6.169319153E-3
1.937416693E0,-3.408996761E-2,-7.169783115E-3,-6.852436066E-2
1.953377386E0,4.307490587E-2,8.081758022E-2,3.023710251E-1
1.969307562E0,1.202484965E-2,2.462750673E-2,1.298904419E-2
1.985298773E0,7.497578859E-3,-4.424035549E-3,-2.498788834E-1
2.001289984E0,3.646701574E-3,-3.011906147E-2,-1.520185471E-1
2.017281195E0,-6.108939648E-3,1.705807447E-2,-2.063465118E-2
2.033211371E0,1.784458756E-2,3.853559494E-2,1.081333160E-1
2.049202582E0,2.488055825E-2,3.443229198E-2,1.557979584E-1
2.065163275E0,1.225787401E-2,4.726916552E-2,1.008596420E-1
2.081154486E0,-5.862146616E-3,5.710351467E-2,-4.242801666E-2
2.097084662E0,-1.279476285E-2,4.062819481E-2,-7.795429230E-2
2.113106390E0,-4.334563017E-2,1.207458973E-2,-2.028179169E-2
2.129097601E0,-7.789939642E-3,-4.070580006E-3,-1.056480408E-2
2.145058295E0,-7.655143738E-3,2.286434174E-3,-5.120754242E-2
2.161049506E0,-2.182137966E-2,4.150867462E-4,4.469299316E-2
2.176979681E0,-2.758966386E-2,-8.646786213E-3,-4.372692108E-2
2.192940375E0,-2.201050520E-3,2.102130651E-2,6.654167175E-2
2.208962103E0,-1.734736562E-2,2.765965462E-2,-1.480007172E-2
2.224953314E0,-1.063996553E-2,8.029401302E-3,1.876640320E-2
2.240944525E0,-2.494129539E-2,3.164476156E-2,4.991436005E-2
2.256935736E0,1.952618361E-3,4.260659218E-3,-6.015586853E-2
2.272896429E0,-1.979988813E-2,2.441185713E-2,-1.455688477E-2
2.288857123E0,4.669129848E-4,4.292964935E-3,-2.409076691E-2
2.304848334E0,-8.681148291E-3,-1.064473391E-2,-3.363704681E-2
2.320839545E0,-1.589286327E-2,2.989083529E-2,-4.320049286E-2
2.336800238E0,1.544359326E-2,5.908447504E-2,5.731678009E-2
2.352760931E0,-1.770460606E-2,3.953045607E-2,1.902866364E-2
2.368752142E0,8.943945169E-3,3.603589535E-2,-2.444267273E-3
2.384712836E0,-9.040534496E-4,2.195000648E-3,3.110694885E-2
2.400704047E0,-1.577794552E-3,7.484555244E-3,4.784679413E-2
2.416634222E0,-9.446829557E-3,2.933663130E-2,-1.201343536E-2
2.432655951E0,3.903955221E-3,2.994209528E-2,2.333641052E-3
2.448647162E0,-8.583545685E-3,1.419526339E-2,-9.699821472E-3
2.464638373E0,1.338213682E-3,-8.820891380E-4,-5.046844482E-3
2.480629584E0,-2.906620502E-3,2.345180511E-2,9.096145630E-3
2.496620795E0,-4.487395287E-3,-1.944422722E-3,-3.144264221E-3
2.512581488E0,-1.612743735E-2,-1.958781481E-2,-8.230209351E-3
2.528511664E0,-3.267864883E-2,-2.891290188E-2,-1.339530945E-2
2.544502875E0,-5.466580391E-3,1.994574070E-2,2.686214447E-2
2.560494086E0,-3.040041029E-2,4.472935200E-2,-2.313613892E-3
2.576454779E0,-2.145285904E-2,4.807507992E-2,2.117061615E-2
2.592476508E0,-1.037654281E-2,5.387157202E-2,3.958702087E-3
2.608467718E0,3.164410591E-4,4.299181700E-2,-1.803398132E-2
2.624428412E0,-3.754198551E-3,3.489673138E-2,1.502799988E-2
2.640419623E0,-1.006293297E-2,7.892429829E-3,2.582550049E-3
2.656380316E0,-1.564015448E-2,-2.345812321E-2,-7.512092590E-3
2.672371527E0,-1.830448210E-2,-2.765107155E-2,-1.048946381E-2
2.688393256E0,8.572191000E-4,2.644467354E-2,5.351638794E-2
2.704384466E0,-1.974493265E-3,1.301634312E-2,6.250667572E-2
2.720375677E0,-1.215025783E-2,2.310967445E-2,-1.226234436E-2
2.736366888E0,-7.683470845E-3,1.019120216E-3,-3.683853149E-2
2.752327582E0,-3.048002720E-3,-4.296839237E-3,-2.325344086E-2
2.768288275E0,-9.240671992E-3,-1.250731945E-2,-1.937675476E-2
2.784310004E0,-9.782806039E-3,-3.548800945E-3,7.066631317E-2
2.800362250E0,-2.020165324E-3,1.488608122E-2,9.386920929E-2
2.816322943E0,-2.638202906E-2,1.730018854E-2,-6.968212128E-2
2.832344672E0,6.259083748E-4,-1.970529556E-3,-1.058788300E-1
2.848335883E0,-1.962132752E-2,2.014636993E-5,5.863666534E-2
2.864296576E0,-8.559495211E-3,-2.162438631E-2,-1.911163330E-3
2.880287787E0,-7.287412882E-3,-4.048168659E-3,-9.366607666E-2
2.896217963E0,5.771134794E-2,1.875925064E-2,1.257162094E-1
2.912178656E0,2.779459953E-2,-2.159774303E-2,4.855060577E-2
2.928108832E0,1.794154942E-2,-2.866658568E-2,-2.103929520E-1
2.944100043E0,-8.277699351E-3,-3.690168262E-2,-1.104354858E-1
2.960091254E0,1.830568910E-2,3.206074238E-3,8.751106262E-2
2.976051947E0,1.046942174E-2,-1.112887263E-2,1.083583832E-1
2.992073675E0,9.046316147E-3,6.669190526E-2,1.532897949E-1
3.008064886E0,1.134485006E-3,4.088309407E-2,4.038810730E-2
3.024025580E0,-1.366634667E-2,3.126147389E-2,-1.395282745E-1
3.040016791E0,-1.950757205E-2,-6.776660681E-3,-4.899120331E-2
3.055946966E0,-2.397942543E-2,-2.159392834E-2,4.629898071E-2
3.071968695E0,-1.910848916E-2,-5.280885100E-2,3.155326843E-2
3.087959906E0,-1.082283258E-2,-3.129264712E-2,2.406692505E-2
3.103920599E0,-1.879768074E-2,-1.123487949E-3,3.097629547E-2
3.119911810E0,-2.421519160E-2,-1.588526368E-2,-7.466316223E-2
3.135872504E0,-1.296885312E-2,-2.082943916E-3,-8.460903168E-2
3.151833197E0,1.450984180E-2,2.144092321E-2,-8.744049072E-2
3.167824408E0,-1.676329970E-2,-1.145213842E-3,1.323699951E-1
3.183785101E0,5.684509873E-3,-3.824681044E-3,9.604930878E-2
3.199776312E0,-2.599084377E-2,7.773756981E-3,1.670551300E-2
3.215706488E0,-1.556149125E-2,1.411867142E-2,3.796195984E-2
3.231697699E0,-5.966693163E-3,-2.977767587E-2,-1.203737259E-1
3.247688910E0,-8.807003498E-3,-1.216366887E-2,-1.087493896E-1
3.263680121E0,2.616986632E-3,-1.832795143E-2,2.257728577E-2
3.279640814E0,-1.550883055E-3,3.576010466E-3,9.171390533E-2
3.295662543E0,-1.426337659E-2,2.777105570E-2,5.795860291E-2
3.311623236E0,-2.631023526E-3,4.092545807E-2,2.690315247E-3
3.327644965E0,4.489064217E-3,3.181904554E-2,-2.388381958E-2
3.343636175E0,-7.119178772E-3,8.871346712E-3,-1.221561432E-2
3.359627386E0,1.044991612E-2,-1.446403563E-2,6.166934967E-2
3.375618597E0,1.872813702E-2,-2.159923315E-2,3.502559662E-2
3.391548773E0,-6.401732564E-3,-4.450081289E-2,-4.903697968E-2
3.407509466E0,-5.933880806E-3,-5.323921144E-2,-5.644798279E-2
3.423470160E0,-1.333893836E-2,-3.084295243E-2,4.151725769E-2
3.439461371E0,-1.174089313E-2,-2.189504355E-2,6.531047821E-2
3.455391547E0,-2.203142643E-2,-3.187608719E-2,-4.014301300E-2
3.471382758E0,-9.992957115E-3,-3.887648135E-2,-6.747245789E-3
3.487404486E0,-2.154447138E-2,-9.293638170E-3,2.903747559E-2
3.503365179E0,-4.227082431E-2,-1.527078450E-3,1.831054688E-4
3.519356390E0,-1.981206238E-2,2.114774287E-2,1.921844482E-2
3.535286566E0,-6.210759282E-3,2.534742653E-2,2.330780029E-3
3.551247259E0,-1.364606619E-2,1.798070967E-3,4.595756531E-3
3.567207953E0,-2.030745149E-3,-4.076398909E-2,-5.095481873E-3
3.583199164E0,-1.229690015E-2,-4.564420879E-2,-3.151893616E-2
3.599190375E0,-2.916827798E-3,-3.576976061E-2,-5.075645447E-2
3.615181586E0,-4.416435957E-3,1.482763328E-3,-2.211666107E-2
3.631142279E0,-7.246002555E-3,2.152427100E-2,6.881713867E-2
3.647072455E0,-3.618136048E-3,2.767614555E-3,4.490280151E-2
3.663063666E0,-1.610210538E-2,-3.196050599E-2,-7.473945618E-2
3.679054877E0,-3.647407889E-2,-3.685266152E-2,1.389217377E-2
3.695076605E0,-4.590284824E-2,-1.782920584E-2,8.814048767E-2
3.711006781E0,-3.201626241E-2,-2.653751895E-2,-1.297349930E-1
3.726997992E0,6.737530231E-3,-1.293443888E-2,4.343986511E-3
3.742958685E0,6.368625164E-2,-4.663266242E-2,1.792049408E-1
3.758949896E0,1.262351871E-3,-5.441921949E-2,-7.204246521E-2
3.774880072E0,-2.721929550E-2,-5.755962431E-2,-1.676197052E-1
3.790871283E0,-4.489873350E-2,-9.681716561E-3,1.212024689E-2
3.806893011E0,-7.047951221E-4,4.600960761E-2,1.511144638E-1
3.822853705E0,1.076994836E-2,3.284431994E-2,1.009521484E-1
3.838844916E0,9.481504560E-3,2.385358512E-2,3.402328491E-2
3.854775091E0,-1.591604948E-2,2.005800605E-3,-4.174232483E-3
3.870735785E0,-1.574647427E-2,-2.389228344E-2,-6.388378143E-2
3.886665961E0,-3.755430877E-2,-4.569628835E-2,-2.777767181E-2
3.902657172E0,-4.752060771E-2,-6.466968358E-2,1.553440094E-2
3.918648383E0,-3.355430067E-2,-5.844302475E-2,6.363010406E-2
3.934670111E0,-1.668158174E-2,-4.771035910E-2,1.829814911E-2
3.950600287E0,-1.992061734E-3,-4.387764633E-2,8.840560913E-3
3.966560980E0,7.538825274E-3,-3.625778854E-2,1.852703094E-2
3.982521674E0,-2.369011939E-2,-3.178025782E-2,2.341175079E-2
3.998512884E0,-3.019487858E-2,-1.337321103E-2,9.119987488E-3
4.014443060E0,-4.291327298E-2,1.289382577E-3,-1.713657379E-2
4.030434271E0,-1.485222578E-2,2.470752597E-2,1.649951935E-2
4.046456000E0,-2.552494407E-2,2.651070058E-2,5.019474030E-2
4.062416693E0,1.806706190E-3,-2.009432018E-2,5.036830902E-2
4.078346869E0,-2.080902457E-2,-8.448375762E-2,-2.057142258E-1
4.094338080E0,-2.628713846E-3,-9.386777878E-3,-1.097707748E-1
4.110298773E0,1.049913466E-2,-1.827710867E-2,2.185277939E-1
4.126289984E0,-2.105353773E-2,-1.282233000E-2,1.468582153E-1
4.142250677E0,-1.803150773E-2,7.872849703E-3,-1.236581802E-1
4.158241888E0,-1.349611580E-2,2.179574966E-2,8.149147034E-3
4.174263617E0,-1.440021396E-2,2.102944255E-2,6.022453308E-3
4.190224310E0,-1.690666378E-2,-1.652941108E-2,1.284313202E-1
4.206154486E0,-8.847102523E-3,-4.102909565E-2,-2.214717865E-2
4.222145697E0,-2.893336117E-2,-5.631849170E-2,-3.148365021E-2
4.238136908E0,-3.042073548E-2,-5.799880624E-2,-5.511188507E-2
4.254158636E0,-6.392851472E-3,-6.367382407E-2,1.229095459E-2
4.270088812E0,-1.432007551E-2,-4.202550650E-2,2.939796448E-2
4.286049506E0,-2.922354639E-2,-6.059637666E-2,1.771068573E-2
4.302071234E0,-3.351078928E-2,-2.069050074E-2,3.469085693E-2
4.318062445E0,-1.813481748E-2,5.387067795E-4,5.886363983E-2
4.334023138E0,-1.816427708E-2,2.496290207E-2,-3.147125244E-3
4.350014349E0,-1.740658283E-2,8.166074753E-3,-1.081876755E-1
4.366005560E0,-1.022786424E-1,-2.957481146E-2,-5.025863647E-2
4.381966254E0,1.243893802E-2,-3.896343708E-2,2.699947357E-2
4.397957465E0,1.779040694E-2,-1.487404108E-2,3.233337402E-2
4.413887640E0,1.001417637E-2,-1.136657596E-2,2.529687881E-1
4.429848334E0,-2.293996513E-2,-3.617724776E-2,1.045837402E-1
4.445839545E0,-3.647723794E-2,1.085966825E-2,-2.091093063E-1
4.461830756E0,-3.562599421E-2,6.725460291E-3,-1.370611191E-1
4.477791449E0,-2.707366645E-2,-1.906287670E-2,1.173048019E-1
4.493782660E0,-4.118457437E-2,-4.265791178E-2,-1.841545105E-3
4.509743353E0,-1.595424116E-2,-5.463218689E-2,-3.007602692E-2
4.525673529E0,3.497007489E-2,-5.980500579E-2,2.577781677E-1
4.541664740E0,4.274442792E-3,-7.351016998E-2,-9.388828278E-2
4.557655951E0,-1.715451479E-2,-5.288240314E-2,-2.659378052E-1
4.573677679E0,-3.673723340E-2,-2.505633235E-2,1.480007172E-2
4.589607855E0,1.417815685E-3,1.662826538E-2,2.596311569E-1
4.605538031E0,2.056780457E-2,-4.245400429E-3,9.474945068E-2
4.621559759E0,1.955956221E-3,-1.216012239E-2,-8.226394653E-2
4.637581488E0,-6.583437324E-3,2.213901281E-2,-1.250553131E-2
4.653572699E0,-1.383374631E-2,6.461620331E-3,5.011272430E-2
4.669533392E0,-1.957249641E-2,-2.790790796E-2,2.463340759E-3
4.685494086E0,-6.206308305E-2,-3.879916668E-2,5.037307739E-3
4.701485297E0,-4.929651320E-2,-7.307142019E-2,4.355430603E-2
4.717476508E0,-1.546074450E-2,-4.787796736E-2,2.459907532E-2
4.733467718E0,-1.783058047E-2,-3.533822298E-2,3.217697144E-3
4.749458929E0,1.643325388E-2,-2.634257078E-2,1.288127899E-2
4.765480658E0,-2.561549842E-2,-3.255075216E-2,-3.257369995E-2
4.781441351E0,-2.128022909E-2,-2.165335417E-2,9.822845459E-4
4.797432562E0,-6.393210590E-2,-1.458400488E-2,-1.330852509E-2
4.813362738E0,8.648350835E-2,1.499342918E-2,1.065053940E-1
4.829384466E0,-4.263959825E-2,-2.731865644E-2,1.042470932E-1
4.845375677E0,8.596807718E-3,-2.960151434E-2,1.258277893E-1
4.861336371E0,-2.594693005E-2,-3.777593374E-2,-2.453556061E-1
4.877327582E0,-2.364695072E-2,2.277135849E-3,6.231307983E-3
4.893257758E0,2.596899867E-3,-8.455455303E-3,1.623067856E-1
4.909248968E0,-2.502639592E-2,2.314680815E-2,-6.939411163E-2
4.925270697E0,-5.530714989E-3,-2.007067204E-3,2.641677856E-3
4.941200873E0,3.058120608E-3,-3.411453962E-2,8.204460144E-2
4.957161566E0,-1.005282998E-2,-3.796297312E-2,7.748126984E-2
4.973152777E0,-3.737011552E-2,-3.177660704E-2,3.205204010E-2
4.989113470E0,-3.126843274E-2,-1.116091013E-2,-4.688930511E-2
5.005043646E0,-2.216704190E-2,-2.940571308E-2,-3.581047058E-3
5.021034857E0,-9.974569082E-3,-2.574658394E-2,3.255558014E-2
5.037026068E0,-3.051212430E-2,-3.591865301E-2,-1.044559479E-2
5.052986761E0,-1.516838372E-2,-4.096102715E-2,-9.021759033E-4
5.068977972E0,-1.252949238E-2,-1.814889908E-2,8.600234985E-3
5.084969183E0,-3.337335587E-2,-8.215487003E-3,-8.476352692E-2
5.100929877E0,-2.614288032E-2,1.233589649E-2,-7.911682129E-3
5.116921088E0,-2.981804311E-2,2.296984196E-2,7.148838043E-2
5.132912299E0,-2.370694280E-2,8.229792118E-3,5.024051666E-2
5.148903509E0,7.466241717E-3,-2.587878704E-2,2.880764008E-2
5.164894720E0,-2.880683541E-2,-2.331769466E-2,1.920604706E-2
5.180916449E0,-2.009645104E-3,-3.447073698E-2,-1.220483780E-1
5.196938177E0,-3.539532423E-3,-1.675909758E-2,-9.320259094E-3
5.212929388E0,-1.398319006E-2,-2.145928144E-2,-5.687332153E-2
5.228859564E0,-3.716126084E-3,-2.590256929E-2,1.659955978E-1
5.244850775E0,-2.180941403E-2,-4.544490576E-2,1.155595779E-1
5.260872504E0,-4.285356402E-2,-2.764397860E-2,-1.745452881E-1
5.276863715E0,-4.122878611E-2,-2.365052700E-3,-7.902812958E-2
5.292854925E0,3.688767552E-3,-4.344046116E-3,1.005735397E-1
5.308846136E0,-3.608231246E-2,-3.269505501E-2,-1.436271667E-1
5.324837347E0,3.164337575E-2,-3.148496151E-3,9.594821930E-2
5.340798041E0,3.557355702E-2,-4.159772396E-2,2.565193176E-1
5.356789252E0,-4.176557064E-3,-4.322052002E-2,-2.130069733E-1
5.372719427E0,-4.257950187E-2,-4.800641537E-2,-2.992191315E-1
5.388710638E0,-5.273333192E-2,-1.550900936E-2,-1.629734039E-2
5.404732367E0,-1.060977578E-3,1.332587004E-2,2.833805084E-1
5.420693060E0,9.358748794E-3,-1.823002100E-2,2.330150604E-1
5.436684271E0,-1.545977592E-2,1.530539989E-2,-1.886749268E-2
5.452644965E0,-1.211297512E-2,6.023007631E-2,-1.604852676E-1
5.468605658E0,-4.114884138E-2,3.185391426E-2,-4.553508759E-2
5.484535834E0,-5.568414927E-2,-3.943645954E-2,8.637905121E-2
5.500527045E0,-4.536068439E-2,-6.457883120E-2,4.578399658E-2
5.516518256E0,-3.416270018E-2,-7.053571939E-2,4.328632355E-2
5.532509466E0,-5.659490824E-3,-5.110710859E-2,1.430511475E-5
5.548439642E0,-1.688902080E-2,-1.252597570E-2,-2.886390686E-2
5.564430853E0,-1.459185779E-2,-1.178950071E-2,5.961799622E-2
5.580391547E0,-1.650321484E-2,-1.842337847E-2,2.118492126E-2
5.596382758E0,-4.178404808E-2,-2.479583025E-2,-6.752014160E-2
5.612312933E0,-2.456180751E-2,-6.758749485E-3,-5.198478699E-3
5.628304144E0,-3.918573260E-3,1.436471939E-4,1.529703140E-1
5.644325873E0,-2.643480897E-3,6.358444691E-3,3.082370758E-2
5.660317084E0,1.387052238E-2,-1.213848591E-3,-9.624099731E-2
5.676308295E0,-1.625427604E-2,-4.070436954E-2,-1.083040237E-1
5.692330023E0,-8.900806308E-3,-1.877623796E-2,1.502904892E-1
5.708321234E0,-2.835743129E-2,-2.279299498E-2,3.044128418E-2
5.724312445E0,-1.968681812E-2,2.509832382E-2,-3.920745850E-2
5.740242621E0,-7.870748639E-3,3.867083788E-2,-2.014160156E-2
5.756203314E0,7.894337177E-4,2.611875534E-3,1.817226410E-2
5.772194525E0,-1.308931410E-2,-8.399486542E-4,5.405235291E-2
5.788155218E0,-3.789512813E-2,-2.944195271E-2,4.434776306E-2
5.804085394E0,-4.044085741E-2,-3.740143776E-2,1.542282104E-2
5.820076605E0,-3.391064703E-2,-4.800951481E-2,-1.590251923E-2
5.836067816E0,-7.432654500E-3,-4.463136196E-2,2.456378937E-2
5.851997992E0,-1.405526698E-2,-1.178789139E-2,6.013393402E-2
5.868019720E0,-1.053015888E-2,-1.444631815E-2,4.598617554E-3
5.884010931E0,-1.139506698E-2,8.225977421E-3,-7.958507538E-2
5.899971625E0,-2.222892642E-2,4.565954208E-3,-3.897762299E-2
5.915962836E0,-5.565683544E-2,3.817200661E-3,-2.198123932E-2
5.931893011E0,-3.704881668E-2,7.800936699E-3,3.587245941E-2
5.947884222E0,-6.868064404E-3,-1.127272844E-2,4.815387726E-2
5.963844916E0,-1.482476294E-2,-2.691292763E-2,5.541801453E-2
5.979866644E0,-2.439573407E-3,-1.714843512E-2,5.048847198E-2
5.995827338E0,-1.514777541E-2,-1.641273499E-3,-4.552841187E-2
6.011818549E0,-1.630695164E-2,4.414498806E-3,-7.195377350E-2
6.027779242E0,-7.075697184E-3,-1.689267159E-2,2.876758575E-2
6.043770453E0,-2.282559872E-2,-1.999616623E-3,6.248664856E-2
6.059731146E0,-2.365176380E-2,-2.328693867E-3,4.572200775E-2
6.075722357E0,-2.795137465E-2,-1.321321726E-2,2.394104004E-2
6.091652533E0,-2.861566842E-2,-5.861461163E-3,-9.883880615E-3
6.107643744E0,6.207600236E-3,7.873952389E-3,-4.839324951E-2
6.123634955E0,-1.530438662E-2,-1.009702682E-4,7.605743408E-2
6.139626166E0,-1.439478993E-2,-1.272636652E-2,1.139926910E-2
6.155617377E0,-3.484076262E-2,-3.057467937E-2,9.740734100E-2
6.171608588E0,-2.274276316E-2,-7.368803024E-3,-2.263069153E-2
6.187569281E0,-4.329115152E-3,-7.230401039E-3,8.195877075E-3
6.203499457E0,-4.321301728E-2,1.218318939E-4,5.113315582E-2
6.219490668E0,-1.789653301E-2,3.056526184E-4,-4.943561554E-2
6.235481879E0,-2.612198889E-2,-7.867634296E-3,-2.782821655E-2
6.251503607E0,-1.828034222E-2,-1.321792603E-3,-7.322692871E-2
6.267433783E0,-2.620093524E-2,3.382325172E-3,7.775497437E-2
6.283424994E0,-1.501549780E-2,-1.323527098E-2,2.070627213E-1
6.299446722E0,-2.896149457E-2,-1.761996746E-2,-3.261947632E-2
6.315437933E0,-6.206242740E-2,-1.717883348E-2,-1.908941269E-1
6.331398627E0,-2.665731311E-2,8.165836334E-4,5.099964142E-2
6.347359320E0,-3.486454487E-2,-1.792311668E-3,7.747840881E-2
6.363350531E0,-3.463397920E-2,1.967084408E-2,-1.762161255E-1
6.379311224E0,1.532575488E-2,2.802056074E-2,2.742080688E-1
6.395302435E0,3.721140325E-2,-5.980390310E-2,8.278846741E-2
6.411232611E0,-9.094431996E-3,-4.498463869E-2,-2.047348022E-1
6.427193304E0,-6.869900227E-2,-3.207397461E-2,-2.574110031E-1
6.443123480E0,-2.264137566E-2,4.841029644E-2,1.906166077E-1
6.459114691E0,1.089312136E-2,4.137206078E-2,2.722263336E-1
6.475105902E0,5.378037691E-3,2.422034740E-3,4.457092285E-2
6.491097113E0,-6.769806147E-3,3.015756607E-2,-3.956127167E-2
6.507057806E0,-1.904784143E-2,4.293322563E-2,-9.006500244E-2
6.523049017E0,-5.381412059E-2,-1.631736755E-3,-2.787971497E-2
6.539009711E0,-4.135039449E-2,-4.436749220E-2,1.287555695E-2
6.555000922E0,-5.413805693E-2,-3.871345520E-2,1.054477692E-2
6.570931097E0,-6.080940366E-3,-4.807984829E-2,7.280349731E-2
6.586891791E0,-8.272513747E-3,-2.656584978E-2,8.941936493E-2
6.602821966E0,-1.463408768E-2,5.580842495E-3,1.483249664E-2
6.618813177E0,-1.292297244E-2,2.678084373E-2,-2.632236481E-2
6.634804388E0,-3.081732988E-2,1.851874590E-2,-4.343128204E-2
6.650795599E0,-1.686616242E-2,1.596671343E-2,-1.483440399E-2
6.666725775E0,-2.744422853E-2,2.253615856E-2,6.415843964E-2
6.682716986E0,-2.338935435E-2,3.601038456E-2,7.369804382E-2
6.698677679E0,-2.434460819E-2,4.207217693E-2,8.877754211E-3
6.714668890E0,6.008699536E-3,4.127919674E-3,-1.529216766E-2
6.730599066E0,-2.184645832E-2,-5.209130049E-2,-1.591510773E-1
6.746620795E0,-2.135932446E-2,-1.196879148E-2,8.501911163E-2
6.762612006E0,-2.771639824E-2,-1.612687111E-2,8.969879150E-2
6.778572699E0,-2.412413061E-2,2.685183287E-2,3.435039520E-2
6.794533392E0,5.842655897E-3,3.245210648E-2,1.962757111E-2
6.810555121E0,-3.329083323E-3,1.564717293E-2,-1.188182831E-2
6.826515814E0,-1.123249531E-2,-9.864568710E-4,1.889324188E-2
6.842507025E0,-1.905035973E-2,-6.104409695E-3,5.443763733E-2
6.858498236E0,-2.139253914E-2,-3.303501010E-2,-1.298999786E-2
6.874458929E0,-3.264085948E-2,-2.062904835E-2,-2.051448822E-2
6.890450140E0,-2.240261436E-2,7.307410240E-3,-4.037857056E-3
6.906410834E0,-1.988744736E-2,8.765518665E-3,1.244640350E-2
6.922341009E0,-1.713079214E-2,9.188324213E-3,4.085063934E-2
6.938332220E0,-2.381087840E-2,-2.920910716E-2,-4.808139801E-2
6.954323431E0,-3.324791789E-2,1.270046830E-2,-6.272220612E-2
6.970284125E0,-5.029930919E-2,8.797019720E-3,1.372051239E-2
6.986244818E0,-2.685061097E-2,1.430302858E-2,5.185317993E-2
7.002205511E0,-1.277998090E-2,2.727368474E-2,2.045822144E-2
7.018166205E0,-1.492787898E-2,5.008965731E-3,-1.101589203E-2
7.034157416E0,1.862540841E-3,9.706050158E-3,1.480579376E-2
7.050087591E0,-7.323473692E-4,-3.965348005E-3,5.060195923E-3
7.066078802E0,-2.496686578E-2,-2.756386995E-3,9.510040283E-3
7.082070013E0,-2.950786054E-2,5.773007870E-3,-3.152942657E-2
7.098030707E0,-3.197714686E-2,7.516145706E-4,4.092216492E-3
7.113991400E0,-1.563544571E-2,1.029166579E-2,1.339626312E-2
7.129982611E0,-2.729159594E-2,9.994059801E-3,8.317947388E-3
7.145943304E0,-1.463507116E-2,-2.726614475E-4,-5.184268951E-2
7.161873480E0,-2.306312323E-3,1.057070494E-2,7.234764099E-2
7.177864691E0,-2.114459872E-3,8.019030094E-3,1.453781128E-2
7.193855902E0,-1.360017061E-2,1.886600256E-2,5.007362366E-2
7.209816595E0,-1.771213114E-2,1.621451974E-2,-1.011009216E-1
7.225807806E0,-5.936756730E-3,3.768375516E-2,-5.823898315E-2
7.241799017E0,-1.664449275E-2,1.516720653E-2,6.239891052E-3
7.257759711E0,-2.950595319E-2,3.536343575E-3,2.998256683E-2
7.273750922E0,-2.937725186E-2,-5.519688129E-3,5.843544006E-2
7.289681097E0,-2.343466878E-2,2.317607403E-3,5.329513550E-2
7.305641791E0,-2.590005100E-2,1.200342178E-2,-2.369213104E-2
7.321663519E0,6.318092346E-4,2.350057662E-2,-1.125917435E-1
7.337593695E0,-6.341472268E-3,1.694779098E-2,-5.291175842E-2
7.353554388E0,9.111776948E-3,2.371908724E-2,1.145706177E-1
7.369545599E0,-1.328878105E-2,4.670386016E-2,1.790246964E-1
7.385506293E0,-2.718855441E-2,3.251276910E-2,-8.069038391E-3
7.401436468E0,-2.887381613E-2,3.550142050E-3,-1.616353989E-1
7.417427679E0,-2.959431708E-2,2.458469570E-2,5.757331848E-3
7.433418890E0,-2.637651563E-2,1.942265034E-2,-8.295440674E-2
7.449379584E0,-3.724461794E-2,-9.328827262E-3,-6.391334534E-2
7.465340277E0,1.802456379E-2,2.359566092E-2,3.334627151E-1
7.481331488E0,2.050234377E-2,-2.775014937E-2,1.012706757E-2
7.497292181E0,-1.932725310E-3,-3.820221126E-2,-2.342042923E-1
7.513283392E0,-4.298593104E-2,-3.947241604E-2,-2.702045441E-1
7.529213568E0,2.013280988E-3,4.376992583E-2,8.170127869E-2
7.545204779E0,1.819537580E-2,8.701910079E-2,2.540178299E-1
7.561195990E0,1.066386700E-3,3.395216167E-2,1.628561020E-1
7.577156683E0,-8.859291673E-3,5.520964414E-2,3.094196320E-2
7.593147894E0,-3.668013215E-2,6.163660437E-2,-4.107952118E-2
7.609139105E0,-1.812468469E-2,3.669614345E-2,-6.275367737E-2
7.625099799E0,-6.989056617E-2,2.426739782E-2,-7.479286194E-2
7.641029974E0,-4.931956530E-2,-2.023555338E-3,-5.405426025E-3
7.657021185E0,-2.803301811E-2,-3.958819807E-2,1.609802246E-2
7.673012396E0,-1.902073622E-2,-6.729051471E-3,4.238891602E-2
7.689003607E0,-2.617540956E-2,3.103017807E-4,1.120376587E-2
7.704994818E0,-2.591063082E-2,1.735322177E-3,-8.008956909E-3
7.720986029E0,-6.631657481E-3,3.211657330E-2,-2.481269836E-2
7.736946722E0,-4.744967818E-2,2.001412213E-2,2.304553986E-2
7.752937933E0,-6.652906537E-3,3.209065646E-2,5.654335022E-2
7.768868109E0,-3.814041615E-3,4.542283714E-2,4.934215546E-2
7.784859320E0,-6.745740771E-3,2.372204699E-2,3.259372711E-2
7.800881049E0,-1.971395314E-2,1.661221124E-2,-4.398822784E-2
7.816841742E0,-3.451833129E-2,-6.849858910E-4,-1.109924316E-1
7.832832953E0,-1.388730109E-2,8.983571082E-3,-5.608558655E-3
7.848763129E0,1.414021850E-2,2.814121172E-2,3.513526917E-2
7.864784857E0,-5.204826593E-4,3.823366016E-2,6.630992889E-2
7.880776068E0,-3.597572446E-3,2.432285249E-2,6.535530090E-3
7.896767279E0,-9.341046214E-3,6.048164517E-2,-7.729530334E-3
7.912727972E0,8.506238461E-3,5.009553581E-2,2.350521088E-2
7.928719183E0,-1.961250603E-2,3.635848314E-2,-2.716064453E-3
7.944710394E0,-9.726494551E-3,2.884164453E-3,-2.606391907E-3
7.960732123E0,-3.083345294E-2,-7.997244596E-3,-9.687423706E-3
7.976692816E0,-3.418654203E-2,-7.050871849E-3,-7.204055786E-3
7.992684027E0,-2.074821293E-2,1.696702838E-2,-4.707336426E-3
8.008675238E0,-1.673166454E-2,1.644565165E-2,-4.593849182E-3
8.024666449E0,-1.263314486E-2,8.139997721E-3,1.229190826E-2
8.040688177E0,-3.044632077E-2,-5.169242620E-3,5.252838135E-3
8.056618353E0,-2.879829705E-2,2.273385227E-2,-2.812957764E-2
8.072609564E0,-2.828240395E-3,4.442259669E-2,-1.843261719E-2
8.088600775E0,-2.235594392E-2,4.038764536E-2,8.019447327E-3
8.104591986E0,-2.065573633E-2,6.250245869E-2,-6.216049194E-3
8.120583197E0,-9.820044041E-3,3.111585975E-2,1.123428345E-3
8.136574408E0,-1.841193438E-2,2.804848552E-2,-1.545906067E-2
8.152565619E0,-7.869347930E-3,1.555855572E-2,5.654621124E-2
8.168556830E0,5.729943514E-4,3.429567814E-2,4.714775085E-2
8.184517523E0,-9.959191084E-3,1.486696303E-2,-3.647232056E-2
8.200478216E0,8.048772812E-3,2.220034599E-2,3.553295135E-2
8.216499945E0,-4.994302988E-3,2.744458616E-2,-4.090785980E-2
8.232491156E0,-2.043677866E-2,8.226349950E-3,-1.437950134E-2
8.248451849E0,-4.485830665E-3,2.241852880E-2,1.694011688E-2
8.264473578E0,-2.198474109E-2,2.017681301E-2,1.713085175E-2
8.280464789E0,-1.771371067E-2,3.495121002E-2,-1.381015778E-2
8.296486517E0,-1.636624336E-3,1.443615556E-2,1.988410950E-2
8.312477728E0,-2.199150622E-2,3.930738568E-2,9.231567383E-4
8.328499457E0,-2.812215686E-2,8.857458830E-3,-1.084136963E-2
8.344460150E0,3.732751310E-2,4.057949781E-2,3.965663910E-2
8.360451361E0,-6.438034773E-2,2.633300424E-2,1.115512848E-2
8.376412054E0,-4.761984944E-2,3.589001298E-2,2.094554901E-2
8.392403265E0,-4.710309207E-2,1.746580005E-2,-4.590702057E-2
8.408333441E0,-5.514338613E-3,2.073779702E-2,-1.079788208E-1
8.424324652E0,8.778110147E-3,2.451083064E-2,-2.175426483E-2
8.440346381E0,8.239388466E-3,4.572269320E-2,1.483325958E-1
8.456307074E0,-9.274408221E-3,3.379404545E-2,9.590435028E-2
8.472298285E0,-3.889448941E-2,3.561943769E-3,-1.048240662E-1
8.488228461E0,-3.283217549E-2,3.017809987E-2,-6.138801575E-2
8.504219672E0,-3.485098481E-2,3.811204433E-2,-8.448600769E-3
8.520241400E0,-5.300061405E-2,1.854476333E-2,-1.279439926E-1
8.536202093E0,-2.196766436E-2,3.376451135E-2,1.234531403E-1
8.552193304E0,1.653105021E-2,4.317528009E-2,2.336740494E-1
8.568215033E0,-1.114098728E-2,-4.757344723E-4,-7.227993011E-2
8.584175726E0,1.117178798E-2,-1.730418205E-2,-2.393674850E-1
8.600197455E0,-2.601432800E-2,2.410447598E-2,-1.985187531E-1
8.616127631E0,-4.948660731E-3,2.993679047E-2,7.909011841E-2
8.632118841E0,2.057787776E-2,6.004363298E-2,1.724290848E-1
8.648110052E0,2.119222283E-2,6.201556325E-2,1.918230057E-1
8.664070746E0,5.213066936E-3,3.983750939E-2,2.945232391E-2
8.680031439E0,-1.811833680E-2,5.862188339E-2,-2.986621857E-2
8.696022650E0,-3.252863884E-2,5.506679416E-2,-3.176021576E-2
8.712044379E0,-5.127306283E-2,3.447785974E-2,-3.134822845E-2
8.728035590E0,-3.569638729E-2,3.487300873E-2,-4.539299011E-2
8.743965765E0,-5.401119590E-3,2.990990877E-3,9.935379028E-3
8.759956976E0,-9.327888489E-3,-7.561922073E-3,-1.742362976E-3
8.775917670E0,-4.213020205E-3,1.293867826E-2,-1.579570770E-2
8.791908881E0,-1.053395867E-2,2.363842726E-2,3.671646118E-3
8.807839056E0,-2.860754728E-2,3.205031157E-2,-5.599021912E-3
8.823830267E0,-3.217221797E-2,3.134143353E-2,2.102375031E-2
8.839821478E0,-2.334372699E-2,4.582086205E-2,4.041576385E-2
8.855812689E0,-2.353756130E-2,4.843622446E-2,2.148437500E-2
8.871773383E0,-5.249112844E-3,3.137075901E-2,5.766391754E-2
8.887764593E0,1.102206111E-2,6.989777088E-3,-7.614421844E-2
8.903725287E0,-1.232223213E-2,9.986758232E-3,-3.285789490E-2
8.919655463E0,-1.910048723E-2,-4.444062710E-3,-2.077579498E-2
8.935646674E0,-1.693534851E-2,2.852699161E-2,-1.104736328E-2
8.951637884E0,-1.203668118E-2,4.218280315E-2,3.220272064E-2
8.967598578E0,-7.508173585E-3,4.759633541E-2,-1.100540161E-3
8.983589789E0,6.208747625E-3,5.301272869E-2,1.828193665E-2
8.999581000E0,3.280073404E-3,4.448628426E-2,8.909225464E-3
9.015541693E0,6.882518530E-3,3.427451849E-2,-4.806518555E-4
9.031532904E0,-6.715506315E-3,2.713334560E-2,2.123069763E-2
9.047463080E0,5.635589361E-3,2.456009388E-2,-7.313728333E-3
9.063454291E0,3.823012114E-3,2.879887819E-2,-7.112503052E-3
9.079476019E0,2.039730549E-3,2.066576481E-2,1.226425171E-2
9.095436713E0,-1.137128472E-2,4.761761427E-2,2.946853638E-3
9.111427924E0,-3.313511610E-3,2.110660076E-2,2.001285553E-2
9.127358099E0,-2.851890028E-2,6.333947182E-3,-1.319217682E-2
9.143379828E0,-2.724958956E-2,1.187020540E-2,-7.519054413E-2
9.159371039E0,-1.365703344E-2,3.035020828E-2,5.907440186E-2
9.175362250E0,-3.845624626E-2,5.601257086E-2,-3.650188446E-2
9.191353461E0,-8.561223745E-3,3.334486485E-2,4.513072968E-2
9.207344672E0,-5.361586809E-3,3.913587332E-2,2.623271942E-2
9.223305365E0,-2.884513140E-2,2.149575949E-2,7.451057434E-3
9.239235541E0,-1.746815443E-2,3.157109022E-2,-9.183883667E-3
9.255226752E0,-2.778503299E-2,6.574094296E-3,-4.179000854E-3
9.271217963E0,-2.126652002E-2,1.032495499E-2,8.249282837E-4
9.287209174E0,-9.533584118E-3,4.002553225E-2,-1.091861725E-2
9.303200384E0,-1.789927483E-4,2.879142761E-2,-5.887985229E-3
9.319191595E0,3.048244119E-2,3.201973438E-2,8.773136139E-2
9.335152289E0,1.420661807E-2,3.119122982E-2,-8.666038513E-2
9.351143500E0,-3.826732934E-2,8.819878101E-3,1.408195496E-2
9.367104193E0,-2.179306746E-2,3.743731976E-2,-4.913330078E-3
9.383064886E0,-5.410313606E-4,4.243493080E-2,7.198333740E-3
9.399086615E0,-1.979368925E-2,3.556746244E-2,4.931449890E-3
9.415047308E0,-1.255747676E-2,2.603536844E-2,3.619766235E-2
9.431038519E0,-2.384594083E-2,1.343375444E-2,2.678585052E-2
9.447029730E0,-1.597064734E-2,6.904602051E-4,-6.641387939E-2
9.462990424E0,-2.048522234E-3,3.684699535E-3,-6.868553162E-2
9.478951117E0,9.847551584E-3,3.482145071E-2,4.144954681E-2
9.494942328E0,-2.107262611E-3,4.808628559E-2,1.372852325E-1
9.510933539E0,-1.475617290E-2,4.591733217E-2,8.730792999E-2
9.526894232E0,-4.203982651E-2,2.772247791E-2,-1.133909225E-1
9.542854925E0,-2.630022168E-2,7.076621056E-3,-7.720375061E-2
9.558846136E0,-3.198620677E-2,2.294802666E-2,1.625061035E-2
9.574806830E0,-4.553048313E-2,1.538592577E-2,-1.178236008E-1
9.590798041E0,8.951723576E-3,6.992739439E-2,1.979770660E-1
9.606728216E0,3.646716475E-2,6.008797884E-2,1.644411087E-1
9.622749945E0,5.773901939E-3,-8.429169655E-3,-1.175556183E-1
9.638741156E0,-1.308450103E-2,-5.002963543E-2,-2.345342636E-1
9.654732367E0,-5.327226222E-2,-2.495878935E-2,-1.149950027E-1
9.670693060E0,-1.247730851E-2,4.150211811E-2,4.738903046E-2
9.686684271E0,-5.822479725E-3,3.586286306E-2,1.381359100E-1
9.702644965E0,1.204279065E-2,3.934037685E-2,1.358623505E-1
9.718575140E0,1.030236483E-2,5.823290348E-2,4.525089264E-2
9.734566351E0,-1.525014639E-2,6.869506836E-2,-2.612781525E-2
9.750557562E0,-4.569497705E-2,7.070344687E-2,-5.208110809E-2
9.766548773E0,-3.771916032E-2,3.215444088E-2,-8.768081665E-3
9.782539984E0,-2.878811955E-2,4.556298256E-3,-8.667945862E-3
9.798531195E0,-1.698619127E-2,-2.085977793E-2,3.403663635E-3
9.814491888E0,-1.268243790E-2,-1.097708941E-2,2.510261536E-2
9.830452582E0,-1.095074415E-2,2.970159054E-3,6.152153015E-3
9.846474310E0,-1.144552231E-2,1.191639900E-2,-8.172988892E-4
9.862465521E0,-1.672226191E-2,1.233142614E-2,1.848125458E-2
9.878487250E0,-2.657729387E-2,2.073293924E-2,1.377868652E-2
9.894447943E0,-3.349810839E-2,3.873282671E-2,3.300285339E-2
9.910439154E0,1.487579942E-2,5.370241404E-2,4.028892517E-2
9.926430365E0,-1.886892319E-2,4.371637106E-2,1.654052734E-2
9.942360541E0,6.944239140E-4,-6.774485111E-3,-5.033588409E-2
9.958351752E0,-1.302921772E-2,1.094347239E-2,1.907348633E-5
9.974373480E0,-3.111720085E-3,1.013398170E-2,-5.260848999E-2
9.990395209E0,-1.000723243E-2,3.147846460E-2,2.640533447E-2
1.000638642E1,-1.928266883E-2,3.797489405E-2,2.644348145E-2
1.002234711E1,9.677797556E-3,2.424800396E-2,7.400512695E-3
1.003833832E1,1.439526677E-2,3.950494528E-2,1.229286194E-2
1.005429902E1,-1.548528671E-4,2.171570063E-2,5.307006836E-2
1.007029023E1,6.906419992E-3,2.797770500E-2,-1.629543304E-2
1.008622040E1,-3.487437963E-3,5.639910698E-3,5.407333374E-4
1.010221162E1,-5.017697811E-3,1.263862848E-2,1.496410370E-2
1.011823334E1,-6.500124931E-3,1.698583364E-2,-8.903503418E-3
1.013413300E1,-2.636915445E-2,6.857633591E-3,-3.039169312E-2
1.015012421E1,-5.258142948E-3,1.124328375E-2,-8.804321289E-3
1.016614594E1,-8.296668530E-3,3.217715025E-2,1.519966125E-2
1.018210663E1,-3.313666582E-2,1.017117500E-2,-4.938411713E-2
1.019812836E1,-3.372150660E-2,1.015418768E-2,3.443145752E-2
1.021408906E1,-3.349870443E-2,2.478760481E-2,-4.699707031E-2
1.023008027E1,-1.635259390E-2,3.923809528E-2,1.523494720E-2
1.024607148E1,-4.275858402E-3,2.960515022E-2,-1.523971558E-3
1.026203217E1,-1.167494059E-2,4.172676802E-2,8.659362793E-4
1.027796235E1,-7.253438234E-3,2.535563707E-2,5.591773987E-2
1.029395356E1,-1.693189144E-2,1.791435480E-2,5.660057068E-3
1.030994477E1,-2.862057090E-2,2.239459753E-2,-1.509666443E-3
1.032593598E1,-2.283415198E-2,8.757948875E-3,-1.589775085E-3
1.034189667E1,-2.431869507E-4,1.940441132E-2,-1.693725586E-3
1.035788788E1,-6.434977055E-3,1.332426071E-2,2.989768982E-3
1.037384858E1,1.499146223E-3,1.914829016E-2,3.402137756E-2
1.038983979E1,-2.609071136E-2,2.224910259E-2,3.872776031E-2
1.040576997E1,-1.222336292E-2,2.521646023E-2,-1.403999329E-2
1.042176118E1,9.062439203E-3,1.264524460E-2,-5.013751984E-2
1.043778290E1,-3.040492535E-3,3.468394279E-4,-5.050373077E-2
1.045377412E1,-4.652440548E-4,8.802115917E-3,3.999614716E-2
1.046976533E1,-1.294153929E-2,4.291528463E-2,1.233835220E-1
1.048575654E1,-1.714372635E-2,1.396495104E-2,2.027320862E-2
1.050171723E1,-2.637308836E-2,1.783317327E-2,-1.210918427E-1
1.051764741E1,-1.107296348E-2,5.663752556E-3,-4.101753235E-3
1.053363862E1,-2.927684784E-2,2.338182926E-2,2.183532715E-2
1.054962983E1,-5.505946279E-2,-1.215273142E-2,-1.222324371E-1
1.056556000E1,1.222881675E-2,6.029242277E-2,1.859846115E-1
1.058158173E1,1.317223907E-2,3.072077036E-2,7.303333282E-2
1.059757294E1,2.651751041E-3,1.217371225E-2,-1.090211868E-1
1.061353364E1,-2.603188157E-2,-5.129641294E-2,-1.643905640E-1
1.062952485E1,-4.733861983E-2,-3.036850691E-2,-3.340816498E-2
1.064548554E1,-4.314810038E-3,6.526529789E-3,6.870460510E-2
1.066144623E1,1.472061872E-2,3.167676926E-2,1.446247101E-1
1.067743744E1,2.417951822E-2,5.789840221E-2,1.178197861E-1
1.069336762E1,2.095878124E-3,4.314559698E-2,-4.586219788E-3
1.070932831E1,-2.004587650E-2,5.750495195E-2,-4.560661316E-2
1.072531953E1,-4.716193676E-2,7.280468941E-3,-5.802440643E-2
1.074124970E1,-5.275115371E-2,-1.901090145E-2,-4.183864594E-2
1.075721039E1,-4.859143496E-2,-3.195142746E-2,1.019287109E-2
1.077317109E1,1.342156529E-2,-1.481622458E-2,4.312992096E-2
1.078916230E1,8.653938770E-3,-9.276926517E-3,4.025936127E-2
1.080509247E1,-1.017034054E-3,9.131520987E-3,3.029346466E-2
1.082108369E1,-2.229316533E-2,1.842144132E-2,8.328437805E-3
1.083710541E1,-3.868368268E-2,1.757231355E-2,-1.611804962E-2
1.085306611E1,-3.609097004E-2,2.833238244E-2,-4.735946655E-3
1.086905732E1,-2.402512729E-2,2.890962362E-2,6.575584412E-3
1.088498749E1,2.348616719E-3,1.476594806E-2,3.557205200E-3
1.090097870E1,-8.670210838E-3,2.789005637E-2,8.684730530E-2
1.091696992E1,-6.936088204E-3,-8.366495371E-3,-4.767799377E-2
1.093293061E1,-1.394788921E-2,-2.137899399E-2,-5.768489838E-2
1.094892182E1,4.539504647E-3,-1.404643059E-2,-3.898429871E-2
1.096491303E1,-1.106089354E-2,3.167754412E-2,-1.786804199E-2
1.098084321E1,-7.005482912E-4,3.376302123E-2,3.680801392E-2
1.099677338E1,9.569138288E-3,2.053907514E-2,3.406810760E-2
1.101279511E1,8.750572801E-3,1.938799024E-2,-1.178264618E-2
1.102878632E1,1.070126891E-2,-2.073615789E-3,6.962776184E-3
1.104477753E1,-4.676252604E-3,4.681825638E-3,1.369190216E-2
1.106076874E1,6.095305085E-3,-6.279885769E-3,5.151367188E-2
1.107675996E1,9.983778000E-4,-1.966577768E-2,1.990222931E-2
1.109275117E1,-3.489777446E-3,-2.111372352E-2,-5.719470978E-2
1.110874238E1,-1.781833172E-2,-1.662394404E-2,-1.007833481E-1
1.112464204E1,-2.339680493E-2,-1.565280557E-2,5.913639069E-2
1.114066376E1,-3.199204803E-2,-3.016161919E-2,1.801204681E-2
1.115665497E1,-3.106923401E-2,-3.511731327E-2,4.879951477E-2
1.117261567E1,-5.879142880E-2,-1.714910567E-2,-3.050994873E-2
1.118860688E1,-3.170815110E-2,1.368597150E-2,-4.476547241E-3
1.120453705E1,-6.859555840E-3,1.657177508E-2,7.182693481E-2
1.122049775E1,-1.058340073E-2,1.413913071E-2,3.323268890E-2
1.123642792E1,4.319548607E-4,3.013402224E-3,1.143646240E-2
1.125241913E1,-2.190704644E-2,-3.616422415E-3,1.623153687E-3
1.126841035E1,-3.674504161E-2,-2.867892385E-3,-4.410171509E-2
1.128434052E1,-1.587344706E-2,6.436437368E-3,-2.279758453E-2
1.130033173E1,-3.086057305E-2,-2.719074488E-3,8.085250854E-3
1.131635346E1,-4.627615213E-3,-7.203429937E-3,-4.119873047E-3
1.133231415E1,-1.873004436E-2,-4.047666490E-2,-4.025745392E-2
1.134830536E1,-1.570500433E-2,-5.325168371E-2,-3.330802917E-2
1.136423554E1,5.927205086E-3,-2.477755398E-2,7.185935974E-3
1.138022675E1,6.513148546E-3,-2.114008367E-2,9.323501587E-2
1.139621796E1,-7.275030017E-3,-3.724649549E-3,2.374935150E-2
1.141217866E1,-2.552613616E-2,-2.159430459E-2,-1.271219254E-1
1.142813935E1,-1.322203875E-2,-1.865302771E-2,3.560829163E-2
1.144413056E1,-3.552174568E-2,-2.208741941E-2,-9.976387024E-3
1.146009125E1,-1.100263000E-2,-3.924433887E-2,-1.776819229E-1
1.147605195E1,1.391121745E-2,8.374887519E-3,5.207824707E-2
1.149201264E1,4.024776816E-2,-2.589520812E-2,1.837959290E-1
1.150800385E1,-3.884121776E-3,-3.601225093E-2,-1.081380844E-1
1.152402558E1,-3.443239629E-2,-5.055091903E-2,-1.822214127E-1
1.153992524E1,-3.039830923E-2,-1.235786639E-2,1.414585114E-2
1.155591645E1,2.327397466E-3,3.963700682E-2,1.122922897E-1
1.157187714E1,2.725437284E-3,1.379363984E-2,4.762840271E-2
1.158786835E1,-1.765638590E-4,9.656213224E-4,4.044628143E-2
1.160382905E1,-1.136612892E-2,1.907316968E-2,1.653480530E-2
1.161978974E1,-1.852494478E-2,-2.464113384E-2,-5.523586273E-2
1.163578095E1,-3.862306476E-2,-3.134247661E-2,-3.838443756E-2
1.165177216E1,-4.168079793E-2,-4.485616088E-2,-1.194667816E-2
1.166776337E1,-2.309326828E-2,-4.506230354E-2,4.321861267E-2
1.168375458E1,-4.063472152E-3,-4.024595022E-2,-2.195358276E-3
1.169971528E1,-1.800081134E-2,-2.289983630E-2,-1.890563965E-2
1.171564545E1,-2.659529448E-3,-2.322473377E-2,1.227760315E-2
1.173166718E1,-7.144451141E-3,-1.168022305E-2,7.506370544E-3
1.174765839E1,-3.267079592E-2,-5.176350474E-3,-2.036094666E-3
1.176364960E1,-3.862315416E-2,2.984736115E-2,-2.353000641E-2
1.177957978E1,-1.772333682E-2,7.737278938E-4,2.923393250E-2
1.179557099E1,-2.655494213E-2,1.555073261E-2,-2.091407776E-2
1.181153168E1,8.036747575E-3,1.175001264E-3,1.013650894E-1
1.182752289E1,-2.350062132E-4,-5.120855570E-2,-3.979682922E-2
1.184345307E1,1.236326993E-2,-1.585088670E-2,-2.576160431E-1
1.185947480E1,-1.321722567E-2,3.632426262E-3,6.337070465E-2
1.187552704E1,-1.637074351E-2,-6.497189403E-3,1.784772873E-1
1.189148774E1,-3.490234911E-2,-1.741667092E-2,-1.539707184E-2
1.190744843E1,-2.134393156E-2,-2.123787999E-3,-2.254581451E-2
1.192343964E1,-1.313991845E-2,-6.113946438E-4,-1.764869690E-2
1.193943085E1,-3.417313099E-3,-1.555041969E-2,-1.027679443E-2
1.195542206E1,1.787006855E-3,-2.131459117E-2,1.868915558E-2
1.197138276E1,4.716441035E-3,-3.217057884E-2,1.413917542E-2
1.198737397E1,-9.354546666E-3,-2.694611251E-2,-3.590106964E-2
1.200336518E1,-3.073832393E-2,-4.803100228E-2,-4.043865204E-2
1.201932587E1,-4.242473841E-2,-4.438400269E-2,-1.850128174E-3
1.203528657E1,-2.803857625E-2,-3.853908181E-2,-1.557350159E-3
1.205130830E1,-2.808292210E-2,-6.665873528E-2,-3.478431702E-2
1.206729951E1,-3.285501897E-2,-3.948345780E-2,1.437187195E-3
1.208329072E1,-2.589327097E-2,-1.719766855E-2,7.837295532E-2
1.209925141E1,-3.958867490E-2,-1.795181632E-2,7.624530792E-2
1.211521210E1,-1.554708183E-2,1.297292113E-2,9.387969971E-3
1.213123383E1,-1.454557478E-2,6.072431803E-3,-9.337806702E-2
1.214722504E1,-1.451359689E-2,-2.465194464E-2,-1.481494904E-1
1.216324677E1,-2.312028408E-2,-2.624422312E-2,-2.561092377E-2
1.217914643E1,-1.791034639E-2,-3.888180852E-2,-1.075172424E-2
1.219513764E1,-3.010040522E-2,-2.026385069E-2,1.692514420E-1
1.221112885E1,-2.376104891E-2,-1.160019636E-2,1.628017426E-2
1.222712006E1,-3.624239564E-2,1.713961363E-3,-1.320037842E-1
1.224314179E1,-3.764742613E-2,-1.743462682E-2,-1.030044556E-1
1.225910248E1,-1.308004558E-2,-3.040483594E-2,6.981468201E-2
1.227506318E1,-3.294190764E-2,-3.415292501E-2,-5.666351318E-2
1.229105439E1,-1.033413410E-2,-4.213190079E-2,-8.257961273E-2
1.230704560E1,3.976665437E-2,-4.717984796E-2,2.315816879E-1
1.232306733E1,1.434262097E-2,-8.390522003E-2,-8.416271210E-2
1.233902802E1,-5.280128121E-2,-5.356884003E-2,-1.866426468E-1
1.235501923E1,-6.344993412E-2,-3.730422258E-2,-2.601242065E-2
1.237097992E1,-1.334482431E-2,8.724570274E-3,8.215808868E-2
1.238694062E1,2.734602988E-2,3.002694249E-2,2.266025543E-2
1.240296235E1,1.320646703E-2,3.435158730E-2,6.296157837E-3
1.241895356E1,-2.285027504E-2,2.367570996E-2,6.657505035E-2
1.243497529E1,-2.294063568E-2,-8.347272873E-3,2.379798889E-2
1.245093598E1,-4.888519645E-2,-2.480202913E-2,-4.538154602E-2
1.246692719E1,-6.059370190E-2,-2.782845497E-2,-7.856750488E-2
1.248291840E1,-3.008906543E-2,-4.497712851E-2,1.290512085E-2
1.249887910E1,-1.450529695E-2,-7.152223587E-2,6.610012054E-2
1.251480927E1,-1.726110280E-2,-6.507956982E-2,3.532981873E-2
1.253080048E1,-1.435065269E-2,-6.658738852E-2,1.980781555E-3
1.254679169E1,-1.830352843E-2,-3.120613098E-2,-3.623867035E-2
1.256281342E1,-3.175348043E-2,-2.147197723E-3,-6.723022461E-2
1.257874360E1,-2.668261528E-3,-4.450380802E-3,-9.504318237E-3
1.259470429E1,-6.132170558E-3,-4.031658173E-4,4.594326019E-2
1.261069550E1,-1.187972724E-2,-9.378373623E-3,6.063175201E-2
1.262668671E1,-2.784784138E-2,1.560103893E-2,-1.096916199E-2
1.264270844E1,-7.081300020E-3,-4.414677620E-3,2.997398376E-2
1.265863862E1,-3.094775975E-2,-5.980461836E-2,-2.475414276E-1
1.267462983E1,-1.418195665E-2,-1.777434349E-2,-4.836654663E-2
1.269065156E1,-4.421457648E-3,-3.136676550E-2,1.629362106E-1
1.270664277E1,-1.098795235E-2,-1.304918528E-2,1.726245880E-2
1.272266450E1,-1.664341986E-2,-5.510866642E-3,-8.540058136E-2
1.273856415E1,2.523973584E-3,1.123154163E-2,-2.270984650E-2
1.275455537E1,-1.354843378E-2,-2.340263128E-2,6.164741516E-2
1.277057709E1,5.021750927E-3,-1.831275225E-2,3.100681305E-2
1.278656830E1,-2.578841150E-2,-2.884018421E-2,-1.409053802E-2
1.280255952E1,-1.434920728E-2,-2.786016464E-2,-1.736640930E-3
1.281855073E1,-1.869137585E-2,-4.909783602E-2,-4.211425781E-2
1.283454194E1,-1.446393132E-2,-2.476072311E-2,-4.180622101E-2
1.285050263E1,-1.300195158E-1,-2.386909723E-2,-1.611709595E-1
1.286649384E1,2.096951008E-3,-2.097737789E-2,1.885890961E-2
1.288242402E1,-1.617868245E-2,-2.091723680E-2,4.968643188E-3
1.289838471E1,-2.840082347E-2,-2.794480324E-2,5.080223083E-2
1.291437592E1,1.435227692E-2,1.080888510E-2,3.659629822E-2
1.293036713E1,-1.839201152E-2,-1.357662678E-2,-6.148624420E-2
1.294632783E1,-1.926861703E-2,9.719371796E-3,-1.402320862E-1
1.296231904E1,-1.749426126E-2,-3.490507603E-3,-5.344772339E-2
1.297827973E1,-1.268643141E-2,-3.298044205E-3,1.220617294E-1
1.299424042E1,-1.632054150E-2,-1.669061184E-2,1.608028412E-1
1.301026215E1,-2.241814137E-2,-3.544795513E-2,-8.818340302E-2
1.302625336E1,-6.383032352E-2,-2.021121979E-2,-1.767358780E-1
1.304224457E1,-1.472975314E-2,-3.135025501E-3,1.775932312E-2
1.305820527E1,-3.358453512E-2,-1.067030430E-2,4.902744293E-2
1.307419648E1,-1.309289038E-2,-6.692230701E-3,-9.439563751E-2
1.309015717E1,1.704543829E-3,7.876873016E-3,2.339315414E-1
1.310617890E1,4.060822725E-2,-1.354241371E-2,-1.035718918E-1
1.312217011E1,-2.479264140E-2,-3.041964769E-2,-2.470970154E-1
1.313813080E1,-2.491012216E-2,-2.950179577E-2,-1.985235214E-1
1.315412202E1,-2.503289282E-2,-9.703099728E-3,1.280431747E-1
1.317011323E1,1.189474761E-2,-8.337259293E-3,2.196168900E-1
1.318613496E1,1.065838337E-2,-9.008646011E-3,-4.128074646E-2
1.320209565E1,1.495887339E-2,4.513353109E-2,3.283596039E-2
1.321805634E1,6.101280451E-4,4.258340597E-2,-3.421497345E-2
1.323404755E1,-4.103252292E-2,-1.745700836E-3,-6.044578552E-2
1.325000825E1,-7.283040881E-2,-1.447290182E-2,-1.104001999E-1
1.326599946E1,-3.562176228E-2,-4.604190588E-2,6.492137909E-2
1.328192963E1,-1.871672273E-2,-5.049681664E-2,5.339336395E-2
1.329789033E1,-2.159929276E-2,-4.951870441E-2,-1.834869385E-2
1.331382050E1,-2.926132083E-2,-2.351975441E-2,-4.953289032E-2
1.332984223E1,-2.064308524E-2,9.873926640E-3,-6.471633911E-3
1.334583344E1,-5.875442922E-2,-1.667463779E-2,-1.606845856E-2
1.336182465E1,-7.293394208E-2,8.003115654E-4,-3.756332397E-2
1.337775483E1,-1.743207872E-2,2.241504192E-2,-1.462936401E-3
1.339374604E1,6.507620215E-3,2.985978127E-2,9.212207794E-2
1.340970673E1,5.119383335E-3,-9.160220623E-3,-1.285552979E-3
1.342569794E1,6.459638476E-3,-9.494125843E-3,-5.655002594E-2
1.344165864E1,-3.714296222E-2,-4.208868742E-2,-2.290811539E-1
1.345761933E1,4.715025425E-3,1.870530844E-2,8.719825745E-2
1.347354951E1,1.566103101E-2,-2.572971582E-2,1.233615875E-1
1.348954072E1,-1.729972661E-2,2.008140087E-2,-4.186344147E-2
1.350553193E1,-2.351477742E-3,1.002073288E-2,-3.476810455E-2
1.352146210E1,-5.848184228E-3,-1.650577784E-2,-8.468627930E-3
1.353748383E1,-9.804040194E-3,-4.386901855E-3,-3.682136536E-3
1.355347504E1,-1.200577617E-2,-6.292760372E-3,5.142116547E-2
1.356943574E1,-3.793776035E-3,-3.101783991E-2,5.889892578E-3
1.358542695E1,-2.715213597E-2,-2.819830179E-2,-1.338958740E-2
1.360135712E1,-2.730426192E-2,-2.838045359E-2,-2.316856384E-2
1.361734833E1,-9.107902646E-3,-1.084363461E-2,-4.745101929E-2
1.363337006E1,-1.036573946E-2,-1.336622238E-2,-2.870178223E-2
1.364936127E1,-1.504428685E-2,-1.147449017E-2,-1.714420319E-2
1.366535248E1,-3.919748962E-2,-6.748616695E-3,-2.948856354E-2
1.368134370E1,-2.489057183E-2,-5.671083927E-3,3.247737885E-2
1.369730439E1,-2.182289958E-2,1.934832335E-2,4.175949097E-2
1.371323456E1,-3.247547150E-2,2.791249752E-2,-2.077198029E-2
1.372922578E1,-2.932249010E-2,4.892295599E-2,-4.716110229E-2
1.374521699E1,1.070208848E-2,2.973061800E-2,-3.874778748E-3
1.376120820E1,-2.827475965E-2,-3.418308496E-2,3.228759766E-2
1.377719941E1,-3.018352389E-2,-3.534573317E-2,2.279663086E-2
1.379319062E1,-1.958072186E-3,-4.922580719E-2,8.255004883E-3
1.380915131E1,-1.330916584E-2,-3.391158581E-2,-4.715156555E-2
1.382514252E1,-3.408685327E-3,-9.763300419E-3,-6.190681458E-2
1.384107270E1,-7.279545069E-3,-6.828248501E-3,-1.197013855E-1
1.385706391E1,-1.260207593E-2,6.710350513E-3,-3.374481201E-2
1.387305512E1,1.284629107E-3,1.025301218E-2,1.766805649E-1
1.388904633E1,-2.439102530E-2,1.597785950E-2,5.871582031E-2
1.390503754E1,-3.223683685E-2,-3.758549690E-3,-2.532997131E-1
1.392102875E1,-2.930014580E-2,2.380865812E-2,-1.218843460E-1
1.393698945E1,-2.217675745E-2,1.003611088E-2,1.367692947E-1
1.395291962E1,-3.864826262E-2,-2.528005838E-2,-8.363056183E-2
1.396891083E1,-1.122394204E-2,-5.220234394E-3,4.310226440E-2
1.398490204E1,4.095035791E-2,-5.352056026E-2,2.942991257E-1
1.400089326E1,-4.470556974E-3,-5.843615532E-2,-1.996574402E-1
1.401685395E1,-3.975017369E-2,-3.916066885E-2,-3.748245239E-1
1.403284516E1,-6.245068461E-2,7.243633270E-3,-7.513046265E-2
1.404880585E1,6.924137473E-3,2.307736874E-2,3.324565887E-1
1.406479706E1,2.730190754E-3,8.274316788E-4,1.958904266E-1
1.408072724E1,-9.037777781E-3,4.676699638E-3,-8.005809784E-2
1.409671845E1,-2.904520929E-2,3.742158413E-2,-8.542633057E-2
1.411270966E1,-4.097025096E-2,3.766101599E-2,-7.616519928E-2
1.412867036E1,-4.759734869E-2,-2.552157640E-2,3.121089935E-2
1.414466157E1,-3.855773062E-2,-2.794361115E-2,-2.161979675E-2
1.416065278E1,-7.626727223E-3,-3.027576208E-2,5.930519104E-2
1.417661347E1,4.503354430E-3,-1.399630308E-2,-2.277374268E-2
1.419254365E1,-9.995251894E-3,-1.094383001E-2,-1.633358002E-2
1.420853486E1,-4.519659281E-2,-2.762079239E-3,-9.871482849E-3
1.422455659E1,-4.203177989E-2,-4.103064537E-3,6.182670593E-3
1.424048676E1,-5.088280886E-2,-2.030497789E-2,6.723403931E-4
1.425650849E1,-1.552686095E-2,-7.298946381E-3,-1.678562164E-2
1.427249970E1,5.736425519E-3,1.144307852E-2,6.524085999E-3
1.428846039E1,9.262308478E-3,3.964346647E-2,6.815910339E-2
1.430445160E1,1.569113135E-2,2.518004179E-2,-2.350902557E-2
1.432038178E1,-1.957610250E-3,7.903218269E-3,-1.151847839E-1
1.433637299E1,-2.340644598E-2,-3.149914742E-2,-8.225917816E-2
1.435239472E1,-3.765296936E-2,-3.666472435E-2,2.493667603E-2
1.436829438E1,-4.528850317E-3,-9.327292442E-3,5.065727234E-2
1.438425507E1,-2.535823733E-2,4.296317697E-2,2.602481842E-2
1.440024628E1,-2.074350417E-2,2.537912130E-2,-6.085109711E-2
1.441617646E1,-1.950402558E-2,3.120809793E-2,-7.098960876E-2
1.443216767E1,-2.445004135E-2,3.238007426E-2,2.437210083E-2
1.444818940E1,-1.905363798E-2,4.926383495E-3,5.751991272E-2
1.446418061E1,-2.822577208E-2,1.194196939E-2,-5.158424377E-3
1.448017182E1,-1.290489733E-2,-8.211880922E-3,-3.435325623E-2
1.449616303E1,-3.272403032E-2,-2.109527588E-2,-6.083488464E-3
1.451215424E1,-4.220243543E-2,-2.269625664E-2,-1.854419708E-2
1.452811494E1,-8.888393641E-4,-9.290099144E-3,-2.867984772E-2
1.454410615E1,-1.235590875E-2,2.281129360E-3,-5.626678467E-4
1.456003632E1,-2.128814161E-2,-1.331597567E-3,-2.512931824E-2
1.457599702E1,-3.013389558E-2,3.126803041E-2,-3.050899506E-2
1.459192719E1,-3.466795385E-2,4.146221280E-2,2.505302429E-3
1.460794892E1,-1.861958206E-2,5.949071050E-2,-3.385543823E-4
1.462390961E1,-1.019391418E-2,6.103542447E-2,-7.936477661E-3
1.463993134E1,-1.758947968E-3,2.953758836E-2,-2.747440338E-2
1.465586152E1,-1.930996776E-2,-1.759022474E-3,-1.826477051E-2
1.467182221E1,-2.471514046E-2,-1.251870394E-2,-2.836418152E-2
1.468778290E1,-2.250556648E-2,9.972512722E-3,-1.896286011E-2
1.470377412E1,-3.727719188E-3,1.189771295E-2,-2.408790588E-2
1.471970429E1,-6.433069706E-3,1.575861871E-2,-5.267143250E-3
1.473569550E1,3.119140863E-3,1.377901435E-2,2.072334290E-2
1.475171723E1,-3.252968937E-2,8.569017053E-3,-5.145263672E-2
1.476770844E1,-5.931794643E-3,9.331375360E-3,-4.217815399E-2
1.478366913E1,-2.282582223E-2,2.330733836E-2,-2.088165283E-2
1.479966035E1,-8.988082409E-3,3.549110889E-2,-4.343032837E-3
1.481559052E1,-3.130050749E-2,2.851754427E-2,-2.151489258E-3
1.483155122E1,1.507118344E-3,2.333246171E-2,-1.432037354E-2
1.484757294E1,-2.018404007E-2,3.659093380E-2,-1.691627502E-2
1.486359467E1,4.065915942E-3,1.347550750E-2,2.038955688E-3
1.487958588E1,-1.700508595E-2,1.187870651E-2,2.101039886E-2
1.489557709E1,-8.621513844E-3,1.714111120E-2,-3.109931946E-3
1.491156830E1,-1.876857877E-2,3.522700444E-2,-1.325550079E-1
1.492752900E1,-1.359733939E-2,2.735662460E-2,-1.398363113E-1
1.494352021E1,-3.022208810E-3,4.379102588E-2,1.814270020E-2
1.495945038E1,-7.210269570E-3,3.559975326E-2,1.426086426E-1
1.497547211E1,-2.472220361E-2,2.956929803E-2,8.986759186E-2
1.499146332E1,-4.834418744E-2,2.761387639E-2,-9.935569763E-2
1.500742402E1,-3.531786054E-2,2.568438277E-2,-8.263301849E-2
1.502338471E1,-1.045684516E-2,4.104432464E-2,-2.755165100E-2
1.503940644E1,-4.331758618E-2,9.721092880E-3,-1.544218063E-1
1.505536713E1,-2.552832663E-2,3.850366920E-2,1.041421890E-1
1.507129731E1,4.864643514E-2,4.738128558E-2,2.238712311E-1
1.508728852E1,2.219730616E-2,2.222565562E-2,-1.111440659E-1
1.510327973E1,-3.553415835E-2,-2.664919384E-2,-3.623361588E-1
1.511920991E1,-4.517424107E-2,-9.039416909E-4,-2.329750061E-1
1.513523163E1,4.598885775E-3,7.654634118E-2,6.869697571E-2
1.515122285E1,2.009475231E-2,6.155147403E-2,2.052087784E-1
1.516724457E1,-2.196922898E-3,3.374075890E-2,1.598081589E-1
1.518326630E1,-2.818603814E-2,5.408439785E-2,-8.667182922E-2
1.519922700E1,-1.574309170E-2,9.201422334E-2,-2.428436279E-2
1.521521821E1,-3.788401186E-2,5.850392580E-2,-7.202339172E-2
1.523120942E1,-3.217160702E-2,4.391029477E-2,-5.032825470E-2
1.524717011E1,-7.139489055E-3,1.613497734E-3,-1.427555084E-2
1.526316132E1,-4.185035825E-2,1.639524102E-2,-4.524803162E-2
1.527909150E1,-7.091239095E-3,-3.507524729E-3,-2.112770081E-2
1.529505219E1,-2.507100999E-2,7.193356752E-3,-4.170417786E-3
1.531107392E1,-1.937067509E-2,3.655409813E-2,-3.507041931E-2
1.532706513E1,-3.020745516E-2,4.028062522E-2,-1.569557190E-2
1.534305634E1,-2.399243414E-2,4.678182304E-2,-8.294105530E-3
1.535904755E1,-1.033373177E-2,6.551019847E-2,2.305030823E-2
1.537497773E1,-2.743987739E-2,6.705304980E-2,6.398487091E-2
1.539093842E1,-2.865898609E-2,6.219473481E-2,-4.345703125E-2
1.540689912E1,-1.783932745E-2,4.404902458E-2,-1.030273438E-1
1.542289033E1,-2.341303229E-2,1.433908939E-2,-6.450080872E-2
1.543882050E1,-1.739172637E-2,1.519650221E-2,-1.026239395E-1
1.545484223E1,-3.196935356E-2,1.899206638E-2,-1.627635956E-2
1.547083344E1,-3.612160683E-3,3.427174687E-2,4.375648499E-2
1.548679413E1,-1.131886244E-2,5.228972435E-2,-1.107025146E-2
1.550278535E1,-2.591614425E-2,4.299217463E-2,-1.319408417E-2
1.551871552E1,-5.042672157E-3,5.102252960E-2,-9.527206421E-4
1.553467622E1,1.699031889E-2,3.830423951E-2,-2.222156525E-2
1.555060639E1,1.437009871E-2,4.584833980E-2,-3.392982483E-2
1.556659760E1,9.247690439E-3,2.580046654E-2,-1.932907104E-2
1.558258881E1,-4.668802023E-3,1.546192169E-2,-1.911163330E-2
1.559861054E1,-1.723170280E-3,3.093689680E-2,-3.563213348E-2
1.561454072E1,-1.772572100E-2,2.477878332E-2,-2.581501007E-2
1.563050141E1,-9.639084339E-3,3.221458197E-2,1.515483856E-2
1.564652314E1,-5.206294358E-2,1.505148411E-2,-2.764034271E-2
1.566251435E1,-2.234457433E-2,1.472476125E-2,-5.607318878E-2
1.567853608E1,-9.345397353E-3,3.453901410E-2,-1.989269257E-2
1.569449677E1,-3.463256359E-2,5.229517817E-2,-2.681732178E-2
1.571048798E1,-2.883784473E-2,4.133287072E-2,-1.218986511E-2
1.572644868E1,-4.056870937E-3,4.919844866E-2,-1.190757751E-2
1.574243989E1,-1.009449363E-3,3.293368220E-2,-1.400184631E-2
1.575837006E1,-2.177610993E-2,4.047107697E-2,-3.045463562E-2
1.577436127E1,-2.549596131E-2,2.457711101E-2,-3.016948700E-2
1.579038300E1,-4.430413246E-4,2.845576406E-2,-1.314735413E-2
1.580634370E1,-6.476998329E-3,3.481867909E-2,-8.097648621E-3
1.582230439E1,-1.493753493E-2,2.184072137E-2,-4.373741150E-2
1.583832612E1,-1.600132883E-2,2.540180087E-2,-3.856468201E-2
1.585428681E1,-6.943002343E-3,4.194462299E-2,-1.928520203E-2
1.587021699E1,-2.705302835E-2,1.988017559E-2,-2.142524719E-2
1.588623872E1,-4.155501723E-3,3.835424781E-2,-2.594566345E-2
1.590219941E1,-1.480297744E-2,4.469367862E-2,-2.566719055E-2
1.591822114E1,-1.790845394E-2,2.730599046E-2,-1.822280884E-2
1.593412080E1,-2.380029857E-2,4.142639041E-2,-2.514648438E-2
1.595008149E1,-2.738565207E-3,3.881835938E-2,-3.926753998E-2
1.596604218E1,-1.251886785E-2,1.976722479E-2,-3.904151917E-2
1.598206391E1,-1.794905961E-2,3.222212195E-2,-1.966857910E-2
1.599805512E1,-4.258185625E-3,4.959076643E-2,-1.226997375E-2
1.601401581E1,-1.190182567E-2,2.791327238E-2,7.133483887E-3
1.603000702E1,7.138252258E-3,3.460744023E-2,-3.330612183E-2
1.604599824E1,-9.753286839E-3,2.022865415E-2,-1.048917770E-1
1.606205048E1,-1.469868422E-2,2.241918445E-2,-1.119413376E-1
1.607801118E1,1.157313585E-2,4.532206059E-2,6.528377533E-2
1.609397187E1,3.824412823E-3,5.210417509E-2,9.656143188E-2
1.610996308E1,5.856472254E-2,4.519647360E-2,-1.560783386E-2
1.612592377E1,-5.665729940E-2,3.584247828E-2,-1.181926727E-1
1.614191498E1,-4.110470414E-2,2.046138048E-2,-8.446693420E-2
1.615784516E1,-4.591520131E-2,-2.245306969E-4,-5.320549011E-2
1.617386689E1,-3.723798692E-2,8.042842150E-2,-8.193302155E-2
1.618988862E1,2.005296946E-2,1.044009328E-1,1.980781555E-1
1.620584931E1,3.002223372E-2,3.438359499E-2,4.996871948E-2
1.622184052E1,1.473660767E-2,-2.578794956E-3,-1.984519958E-1
1.623783173E1,-2.017876506E-2,-3.851306438E-2,-2.389316559E-1
1.625379242E1,-2.168938518E-2,-3.313899040E-3,-7.630825043E-2
1.626972260E1,-1.257389784E-3,4.251170158E-2,7.188701630E-2
1.628571381E1,2.029000223E-2,4.739892483E-2,1.796798706E-1
1.630170502E1,2.202351391E-2,6.897681952E-2,6.729602814E-2
1.631763520E1,6.402388215E-3,7.518857718E-2,-4.489135742E-2
1.633365693E1,-3.344067931E-2,6.967395544E-2,-5.173683167E-2
1.634964814E1,-2.849854529E-2,3.645986319E-2,-5.861568451E-2
1.636560883E1,-3.995317221E-2,8.846819401E-3,-5.597114563E-2
1.638156952E1,-1.437100768E-2,-1.360893250E-3,-4.860115051E-2
1.639756074E1,-1.490008831E-2,5.624532700E-3,-7.741928101E-3
1.641355195E1,-1.110610366E-2,-9.577333927E-3,6.831169128E-3
1.642957368E1,-2.634067833E-2,2.017474174E-2,-1.163482666E-4
1.644553437E1,-2.498750389E-2,3.304791451E-2,-1.423263550E-2
1.646152558E1,-1.837950945E-2,3.742277622E-2,-2.842330933E-2
1.647751679E1,-3.542317450E-2,4.014301300E-2,-3.787326813E-2
1.649347748E1,-1.109263301E-2,2.404361963E-2,5.235671997E-4
1.650943818E1,4.677730799E-2,4.804396629E-2,-1.132297516E-2
1.652545991E1,-3.543950617E-2,4.474782944E-2,-7.096481323E-2
1.654145112E1,3.488838673E-3,3.825855255E-2,-3.844261169E-3
1.655741181E1,-3.562791646E-2,-1.181095839E-2,-5.397319794E-2
1.657343354E1,-1.172834635E-2,1.449990273E-2,-1.088953018E-1
1.658942475E1,1.659067273E-1,4.694199562E-2,1.880359650E-1
1.660538544E1,-3.928214312E-3,7.118219137E-2,-1.180963516E-1
1.662134614E1,-2.498276532E-2,3.884267807E-2,-4.846286774E-2
1.663736786E1,-3.792256117E-3,4.222249985E-2,1.910209656E-3
1.665332856E1,-1.885637641E-2,3.861564398E-2,2.001762390E-3
1.666925873E1,-1.011684537E-2,2.502799034E-2,-1.703166962E-2
1.668524995E1,-4.123121500E-3,1.640224457E-2,-2.170181274E-2
1.670124116E1,-3.143310547E-3,1.048737764E-2,-1.680660248E-2
1.671720185E1,4.675656557E-3,1.641535759E-2,-4.062461853E-2
1.673322358E1,-1.820564270E-2,1.758503914E-2,-3.093719482E-2
1.674921479E1,-4.149973392E-4,2.597206831E-2,-2.364635468E-2
1.676517548E1,-3.048992157E-2,1.729756594E-2,2.818107605E-3
1.678116669E1,-1.954242587E-2,2.980011702E-2,-4.252910614E-2
1.679718842E1,-2.485218644E-2,2.354413271E-2,-1.848220825E-2
1.681314912E1,-2.695220709E-2,2.989071608E-2,-3.519821167E-2
1.682907929E1,-2.953165770E-2,3.617447615E-2,-3.034973145E-2
1.684510102E1,-1.578915119E-2,3.018218279E-2,-3.025817871E-2
1.686106171E1,-3.342214227E-2,3.122782707E-2,-2.057361603E-2
1.687708344E1,-1.509714127E-2,3.719681501E-2,-2.047538757E-2
1.689298310E1,-1.563265920E-2,1.701873541E-2,-2.279090881E-2
1.690894379E1,-1.786950231E-2,1.372289658E-2,-1.555633545E-2
1.692490449E1,-2.245801687E-2,1.995265484E-2,-2.986717224E-2
1.694089570E1,-5.512148142E-3,1.664668322E-2,-2.981567383E-2
1.695682587E1,1.493692398E-3,1.572799683E-2,-1.538848877E-2
1.697281708E1,-2.037891746E-2,2.245581150E-2,-3.929233551E-2
1.698880830E1,-2.033984661E-2,1.048845053E-2,-2.971744537E-2
1.700479951E1,6.107956171E-3,8.228182793E-3,-1.296997070E-2
1.702079072E1,1.446604729E-3,1.560413837E-2,-2.256202698E-2
1.703678193E1,-1.987549663E-2,1.791971922E-2,-1.538085938E-2
1.705274262E1,-1.454409957E-2,3.481245041E-2,-8.222579956E-3
1.706867280E1,-1.182749867E-2,2.291285992E-2,-3.447532654E-3
1.708469452E1,-1.272886992E-3,-1.072168350E-3,-1.065444946E-2
1.710068574E1,-1.912942529E-2,1.577085257E-2,-9.688663483E-2
1.711670746E1,-1.289269328E-2,1.960110664E-2,-6.349754333E-2
1.713266816E1,7.992506027E-3,3.887939453E-2,9.910488129E-2
1.714865937E1,-3.064036369E-3,6.082439423E-2,5.835342407E-2
1.716462006E1,-1.690882444E-2,3.558576107E-3,-1.095581055E-2
1.718061127E1,-3.095482290E-2,-2.576768398E-3,-2.359352112E-1
1.719654145E1,-1.358976960E-2,7.318675518E-3,5.693435669E-3
1.721253266E1,-2.801273763E-2,-3.739953041E-3,-6.481170654E-3
1.722852387E1,-3.981824219E-2,-1.585966349E-2,-1.263990402E-1
1.724451508E1,3.033012152E-3,6.634467840E-2,2.587509155E-1
1.726050629E1,2.595263720E-2,2.413731813E-2,7.478713989E-3
1.727652802E1,1.656046510E-2,3.481805325E-3,-1.741180420E-1
1.729248872E1,-1.346215606E-2,-2.004265785E-2,-2.075624466E-1
1.730841889E1,-1.952463388E-2,-6.305813789E-3,-9.300804138E-2
1.732441010E1,-1.429995894E-2,1.365065575E-2,5.972385406E-2
1.734040131E1,1.472240686E-2,2.340489626E-2,1.001205444E-1
1.735639252E1,1.781925559E-2,5.505323410E-2,5.457973480E-2
1.737238373E1,-1.009434462E-3,6.752711535E-2,-5.305576324E-2
1.738837495E1,-4.479761422E-2,6.526076794E-2,-9.599685669E-2
1.740433564E1,-4.168955982E-2,3.482311964E-2,-5.993461609E-2
1.742029633E1,-4.061041772E-2,4.927217960E-3,-4.067420959E-2
1.743631806E1,-3.384770453E-2,-1.028513908E-2,-9.487152100E-3
1.745227875E1,-1.696172357E-2,-6.003975868E-3,1.687717438E-2
1.746820893E1,-1.168420911E-2,1.519465446E-2,2.519607544E-3
1.748423066E1,-1.574352384E-2,2.314090729E-2,-3.106594086E-2
1.750022187E1,-2.416700125E-2,4.026228189E-2,-4.084014893E-2
1.751621308E1,-3.030250967E-2,3.594380617E-2,-4.357910156E-2
1.753211274E1,-3.388129175E-2,2.612996101E-2,-3.322601318E-3
1.754807343E1,-3.682808578E-2,2.378773689E-2,9.918212891E-4
1.756403413E1,1.790940762E-3,2.053534985E-2,2.946853638E-3
1.758002534E1,-2.765817940E-2,3.501367569E-2,7.409095764E-3
1.759598603E1,-6.253927946E-3,-1.309156418E-3,-1.102142334E-1
1.761194672E1,-1.270845532E-2,-2.803921700E-3,-7.230949402E-2
1.762787690E1,-1.274141669E-2,2.407097816E-2,-6.801223755E-2
1.764386811E1,-1.048535109E-2,5.834507942E-2,2.726268768E-2
1.765985932E1,-1.006168127E-2,4.371434450E-2,1.484584808E-2
1.767588105E1,-7.374048233E-3,2.329427004E-2,-4.060363770E-2
1.769184174E1,-5.253016949E-3,1.854658127E-2,-5.061531067E-2
1.770780244E1,1.813572645E-2,3.353476524E-3,1.557350159E-3
1.772382416E1,2.488404512E-3,-6.069391966E-3,-1.811981201E-2
1.773981538E1,1.057147980E-2,5.949586630E-3,-1.383399963E-2
1.775577607E1,-1.251979172E-2,-2.044367790E-2,-2.629375458E-2
1.777176728E1,-1.624123752E-2,-9.028017521E-3,-6.027126312E-2
1.778775849E1,1.804009080E-3,-7.284075022E-3,-3.438663483E-2
1.780371918E1,-6.378635764E-3,-1.973271370E-2,1.064872742E-2
1.781971039E1,-2.466470003E-3,-1.586556435E-3,-1.850700378E-2
1.783564057E1,-3.203859925E-2,-7.334858179E-3,-4.286861420E-2
1.785166230E1,-2.519454062E-2,1.189640164E-2,-6.249046326E-2
1.786765351E1,-2.787944674E-2,1.988762617E-2,-7.913589478E-3
1.788361420E1,-3.081953526E-2,8.087605238E-3,1.215934753E-3
1.789960541E1,-3.133608401E-2,1.157253981E-2,-3.951072693E-3
1.791559663E1,-2.674508095E-2,9.779065847E-3,-4.261589050E-2
1.793155732E1,-1.238076389E-2,1.103204489E-2,-4.060459137E-2
1.794748749E1,-2.940233052E-2,1.241534948E-3,-2.903652191E-2
1.796347870E1,-3.453302383E-2,3.670811653E-3,1.126480103E-2
1.797946992E1,-1.597160101E-2,-8.363574743E-3,-3.700160980E-2
1.799546113E1,-1.908665895E-2,-1.098257303E-2,3.335952759E-3
1.801142182E1,-7.419854403E-3,-8.592635393E-3,-3.055477142E-2
1.802741303E1,-5.118757486E-3,-1.283365488E-2,-4.530334473E-2
1.804337372E1,4.508331418E-3,1.479986310E-2,-1.457881927E-2
1.805936494E1,-9.961828589E-3,1.114115119E-2,-1.495742798E-2
1.807529511E1,-9.740069509E-3,-3.085193038E-2,-5.842494965E-2
1.809131684E1,2.350211143E-3,-4.060737789E-2,-7.557296753E-2
1.810730805E1,-4.494085908E-3,-1.615208387E-2,-3.526878357E-2
1.812326874E1,-1.087217033E-2,-1.058617234E-2,1.103820801E-1
1.813922944E1,-5.581811070E-3,1.918958127E-2,3.823471069E-2
1.815525117E1,-1.594071090E-2,-1.116603613E-3,-1.248035431E-1
1.817124238E1,-2.245460451E-2,-2.486295998E-2,-1.561660767E-1
1.818726410E1,-2.470058203E-2,-1.942808926E-2,-5.611419678E-3
1.820325532E1,-3.636753559E-2,-7.439687848E-3,6.835651398E-2
1.821924653E1,-4.068459570E-2,-3.738699853E-2,-2.359704971E-1
1.823523774E1,1.158729196E-3,-1.183585823E-2,7.256793976E-2
1.825119843E1,4.820658267E-2,-2.354949713E-2,1.106834412E-1
1.826712861E1,-5.602672696E-3,-3.850819916E-2,-1.335210800E-1
1.828311982E1,-3.911101818E-2,-5.992070585E-2,-1.838188171E-1
1.829914155E1,-4.733532667E-2,-2.675041556E-3,1.475238800E-2
1.831513276E1,-2.776488662E-3,5.054202676E-2,1.246938705E-1
1.833109345E1,1.180745661E-2,4.114386439E-2,4.791259766E-2
1.834708466E1,1.654204726E-2,1.880105585E-2,-3.363227844E-2
1.836304536E1,6.238043308E-3,-9.557031095E-3,-6.009864807E-2
1.837903657E1,-1.699212193E-2,-3.652850538E-2,-3.866577148E-2
1.839496674E1,-6.534192711E-2,-4.166296870E-2,-7.944869995E-2
1.841092744E1,-5.933250487E-2,-4.943410307E-2,-4.837799072E-2
1.842685761E1,-2.908426523E-2,-1.965696178E-2,4.256153107E-2
1.844284882E1,-9.900733829E-3,-1.222717576E-2,4.491996765E-2
1.845887055E1,-3.123451769E-2,-3.892903775E-2,-2.692699432E-2
1.847486176E1,-1.644775271E-3,-4.712861776E-2,-7.244682312E-2
1.849085297E1,-2.453950047E-2,-2.877609245E-2,-5.093765259E-2
1.850684418E1,-5.540545285E-2,-5.257610232E-3,-1.983833313E-2
1.852280488E1,-3.104874492E-2,5.304719787E-3,-1.985931396E-2
1.853879609E1,-3.532405198E-2,1.614532806E-2,5.195713043E-2
1.855472626E1,2.974778414E-3,-1.590405591E-3,-3.102302551E-3
1.857071747E1,4.151403904E-3,-1.882796548E-2,6.157493591E-2
1.858670868E1,-1.644365489E-2,-3.010912053E-2,-8.208370209E-2
1.860269990E1,-1.395691931E-2,-3.557629511E-2,-2.473096848E-1
1.861869111E1,4.979804158E-3,2.039102651E-2,-4.851531982E-2
1.863468232E1,-3.416135907E-3,4.239484668E-3,1.334953308E-1
1.865064301E1,-9.504109621E-3,1.434520259E-2,-2.904891968E-3
1.866657319E1,7.714271545E-3,2.451666072E-2,-4.118442535E-2
1.868256440E1,-1.847435534E-2,-1.171880960E-2,-1.001262665E-2
1.869855561E1,4.926308990E-3,-1.249590516E-2,-9.932518005E-3
1.871454682E1,-1.567862928E-2,1.229994744E-2,-2.900886536E-2
1.873053803E1,-4.720672965E-3,-2.818197012E-3,-2.584457397E-3
1.874652924E1,-2.531707287E-2,-2.091486752E-2,-9.665489197E-3
1.876248994E1,-1.061922312E-2,-2.823225409E-2,-6.462192535E-2
1.877845063E1,-2.735711634E-2,-3.574581444E-2,-3.576946259E-2
1.879447236E1,-2.503901720E-2,-4.115732014E-2,-2.127552032E-2
1.881043305E1,-4.452195764E-2,-4.293599725E-2,-2.594089508E-2
1.882645478E1,-3.029911220E-2,-4.487563670E-2,-1.624107361E-2
1.884244599E1,-2.730360627E-2,1.152768731E-3,1.500129700E-2
1.885840668E1,-1.888623834E-2,8.029133081E-3,3.425121307E-2
1.887442841E1,-5.379617214E-4,1.359146833E-2,-2.074432373E-2
1.889032807E1,-1.511198282E-2,7.761016488E-3,-8.052539825E-2
1.890631928E1,-3.522570431E-2,-7.813170552E-3,-9.235858917E-2
1.892227997E1,-3.929875791E-2,-4.310789704E-2,-4.667663574E-2
1.893827118E1,-2.624878287E-2,-4.432411492E-2,2.057266235E-2
1.895420136E1,1.724168658E-3,4.858970642E-4,1.021451950E-1
1.897019257E1,-1.380147040E-2,-1.390516758E-3,1.689910889E-3
1.898621430E1,-2.761803567E-2,-1.933091879E-2,-1.538572311E-1
1.900214448E1,-4.416084290E-2,-2.174045146E-2,-1.058044434E-1
1.901813569E1,-5.913555622E-3,-2.999526262E-2,6.685066223E-2
1.903412690E1,-1.383343339E-2,-4.428821802E-2,-6.460762024E-2
1.905008759E1,2.112194896E-3,-3.439790010E-2,-1.218671799E-1
1.906601777E1,4.358105361E-2,-2.815407515E-2,1.944646835E-1
1.908200898E1,1.160149276E-2,-4.236099124E-2,-4.711341858E-2
1.909800019E1,-3.128693998E-2,-3.372859955E-2,-2.671470642E-1
1.911396088E1,-2.301664650E-2,-2.235618234E-2,-1.350574493E-1
1.912992158E1,-7.992237806E-4,1.118779182E-3,1.288070679E-1
1.914591279E1,9.594514966E-3,-9.334564209E-3,6.455230713E-2
1.916187348E1,2.219900489E-3,1.652091742E-3,8.156681061E-2
1.917786469E1,-6.662353873E-3,2.648183703E-2,-3.077411652E-2
1.919379487E1,-3.304590285E-2,1.504322886E-2,-9.522914886E-2
1.920981660E1,-5.007229745E-2,1.240715384E-2,-5.187797546E-2
1.922580781E1,-7.453405857E-2,-2.241742611E-2,-6.353473663E-2
1.924176850E1,-1.965662837E-2,-4.506209493E-2,-1.053905487E-2
1.925775971E1,2.640485764E-5,-5.174970627E-2,5.678462982E-2
1.927375092E1,2.768114209E-3,-6.991809607E-2,1.151657104E-2
1.928971162E1,-3.471176326E-2,-7.287812233E-2,-6.494522095E-2
1.930573334E1,-4.119561613E-2,-3.152105212E-2,-4.558467865E-2
1.932172455E1,-3.832368553E-2,-7.952004671E-3,-2.137184143E-2
1.933771577E1,-3.518028557E-2,-1.688119769E-2,-9.088516235E-3
1.935370698E1,-7.918328047E-3,-4.410266876E-3,3.192901611E-3
1.936966767E1,2.262964845E-3,-1.736396551E-2,4.894065857E-2
1.938559784E1,3.874942660E-3,8.184880018E-3,-2.748584747E-2
1.940158906E1,1.442077756E-2,9.276092052E-3,9.240150452E-2
1.941758027E1,-1.736916602E-2,-6.930223107E-2,-1.972007751E-1
1.943357148E1,-2.426834404E-2,-2.046415210E-2,-1.945943832E-1
1.944950165E1,1.181493700E-2,-1.226052642E-2,1.171331406E-1
1.946549286E1,-3.234961629E-2,-2.099624276E-2,4.569816589E-2
1.948151459E1,1.859381795E-3,-6.637066603E-3,-3.788471222E-2
1.949753632E1,-1.160608232E-2,-2.000555396E-2,-3.283500671E-2
1.951349702E1,-1.148958504E-2,-7.197529078E-3,-6.112098694E-3
1.952951874E1,-2.084708214E-2,-2.231764793E-2,3.896713257E-3
1.954550996E1,-1.360335946E-2,-2.641162276E-2,-2.891540527E-3
1.956144013E1,-2.144040167E-2,-3.883618116E-2,-3.605747223E-2
1.957737031E1,-1.247486472E-2,-3.498715162E-2,-2.135944366E-2
1.959339204E1,-2.150051296E-2,-3.892230988E-2,-3.543949127E-2
1.960935273E1,-1.805734634E-2,-3.069734573E-2,-7.584953308E-2
1.962537446E1,-2.002251148E-2,-4.326921701E-2,-3.480434418E-2
1.964136567E1,-3.674224019E-2,-2.707576752E-2,8.648872375E-3
1.965732636E1,-4.325880855E-2,-1.931291819E-2,4.484462738E-2
1.967331757E1,-2.402320504E-2,-1.077294350E-2,-5.075645447E-2
1.968927827E1,-2.823442221E-2,-6.459534168E-3,-1.008424759E-1
1.970523896E1,3.153294325E-3,2.326846123E-3,-5.739212036E-2
1.972126069E1,-5.837395787E-3,1.529461145E-2,2.689933777E-2
1.973728242E1,-1.421557367E-2,-6.559669971E-3,1.182947159E-1
1.975324311E1,-4.522105306E-2,-3.228753805E-2,2.270030975E-2
1.976923432E1,-4.717329144E-2,-2.635693550E-2,-1.448345184E-1
1.978522553E1,-5.885004997E-3,-1.402735710E-3,2.055644989E-2
1.980118622E1,-1.940992475E-2,-2.814042568E-2,3.037834167E-2
1.981717744E1,-1.584558189E-2,-3.685402870E-2,-2.087621689E-1
1.983313813E1,2.827966213E-2,-7.391512394E-3,7.671833038E-2
1.984909882E1,4.394790530E-2,-4.014921188E-2,1.897859573E-1
1.986502900E1,6.794080138E-3,-6.718617678E-2,-1.716470718E-1
1.988102021E1,-5.626714230E-2,-7.058066130E-2,-2.480812073E-1
1.989701142E1,-4.971130937E-2,-1.701879501E-2,8.609771729E-3
1.991300263E1,-3.486275673E-3,1.090526581E-2,1.767053604E-1
1.992893281E1,1.144894958E-2,7.170319557E-3,1.002607346E-1
1.994492402E1,1.105833054E-2,8.941054344E-3,-7.551193237E-3
1.996088471E1,-1.675277948E-2,4.019981623E-2,-4.347038269E-2
1.997687592E1,-3.626315296E-2,1.685965061E-2,-5.763816833E-2
1.999280610E1,-6.840120256E-2,1.590013504E-3,-7.397651672E-2
2.000879731E1,-6.908854842E-2,-2.537232637E-2,2.478122711E-2
2.002481904E1,-7.897347212E-3,-2.971422672E-2,8.036899567E-2
2.004081025E1,1.373022795E-2,-6.721419096E-2,4.466819763E-2
2.005680146E1,-5.739748478E-3,-5.314630270E-2,-7.270240784E-2
2.007279267E1,-1.567766070E-2,-4.636895657E-2,-6.797313690E-2
2.008875336E1,-2.727350593E-2,-2.577543259E-3,-5.684852600E-3
2.010468354E1,-4.967586696E-2,-1.233637333E-3,-7.915496826E-4
2.012067475E1,-3.332613409E-2,-1.383751631E-2,-2.700424194E-2
2.013666596E1,-1.616366208E-2,2.649390697E-2,1.855850220E-3
2.015265717E1,2.873559296E-2,2.164661884E-3,3.552055359E-2
2.016864838E1,-6.957083941E-3,2.563595772E-3,8.586025238E-2
2.018463959E1,-2.270616591E-2,-3.777879477E-2,-1.966466904E-1
2.020066132E1,-4.195264727E-2,-1.543807983E-2,-1.318254471E-1
2.021665253E1,-2.490216494E-2,-1.302754879E-2,1.799087524E-1
2.023261323E1,-2.862502635E-2,-1.408427954E-2,6.522655487E-2
2.024854340E1,-2.266520262E-2,2.309942245E-2,-1.047296524E-1
2.026453461E1,-7.913768291E-3,1.759636402E-2,-4.224109650E-2
2.028049531E1,-4.141435027E-3,-1.660424471E-2,7.315063477E-2
2.029648652E1,-1.629494131E-2,-3.470063210E-2,7.599735260E-2
2.031241669E1,-5.287796259E-3,-2.360558510E-2,-5.112648010E-3
2.032840790E1,-1.544678211E-2,-3.053224087E-2,-3.843307495E-2
2.034439912E1,-2.390325069E-2,-2.370101213E-2,1.679992676E-2
2.036035981E1,-1.404945552E-2,-2.940183878E-2,-5.492401123E-2
2.037632050E1,-2.466915548E-2,-3.421366215E-3,-7.395172119E-2
2.039234223E1,-1.017367840E-2,-2.890396118E-2,1.726055145E-2
2.040827241E1,-2.218177915E-2,-2.434372902E-2,4.135990143E-2
2.042426362E1,-2.615463734E-2,2.412021160E-3,-2.087116241E-2
2.044028535E1,-2.005498111E-2,1.282340288E-2,-5.674362183E-2
2.045627656E1,-2.921715379E-3,2.579498291E-2,-4.453086853E-2
2.047226777E1,-6.694450974E-3,3.802603483E-2,5.881214142E-2
2.048825898E1,-5.894571543E-3,6.017625332E-3,6.630706787E-2
2.050425019E1,-2.363333106E-2,-2.137196064E-2,-2.220153809E-2
2.052024140E1,-1.640905440E-2,-2.305579185E-2,-7.964706421E-2
2.053623261E1,3.796532750E-3,-1.683837175E-2,-6.040287018E-2
2.055222382E1,1.165360212E-3,-1.938658953E-2,4.411697388E-3
2.056818452E1,-4.124864936E-3,-2.284431458E-2,1.122579575E-1
2.058417573E1,-2.548471093E-2,-4.687905312E-4,6.792068481E-3
2.060019746E1,-2.732357383E-2,9.101867676E-3,-1.609897614E-1
2.061618867E1,-1.788438857E-2,2.684545517E-2,9.075164795E-3
2.063221039E1,-2.164787054E-2,-1.457709074E-2,6.907653809E-2
2.064811005E1,-4.361687601E-2,-3.757369518E-2,-1.726980209E-1
2.066410126E1,1.389431953E-2,1.000964642E-2,1.388473511E-1
2.068006196E1,4.608877003E-2,-4.133307934E-2,1.797056198E-1
2.069605317E1,-1.734744012E-2,-1.240777969E-2,-2.157297134E-1
2.071198334E1,-5.637288094E-2,-3.339785337E-2,-2.804193497E-1
2.072797455E1,-3.744542599E-2,1.000189781E-2,4.096889496E-2
2.074396577E1,1.428563893E-2,3.208988905E-2,2.856960297E-1
2.075995698E1,2.340081334E-2,-6.293058395E-4,6.781482697E-2
2.077594819E1,5.911931396E-3,2.263915539E-2,-6.651973724E-2
2.079193940E1,-2.324512601E-2,4.486322403E-2,-1.636505127E-2
2.080790009E1,-4.141149670E-2,1.111710072E-2,-1.396560669E-2
2.082386078E1,-6.682187319E-2,-1.542311907E-2,-3.071689606E-2
2.083988251E1,-4.341363162E-2,-7.706248760E-2,2.200984955E-2
2.085587372E1,2.055644989E-3,-6.034350395E-2,2.440166473E-2
2.087186494E1,-2.516508102E-3,-3.826445341E-2,2.904605865E-2
2.088782563E1,-1.113560796E-2,-4.614114761E-3,4.783439636E-2
2.090381684E1,-2.345873415E-2,1.474738121E-3,-5.319404602E-2
2.091983857E1,-2.897559106E-2,-1.293313503E-2,-7.512569427E-2
2.093586030E1,-2.941012383E-2,-2.733230591E-3,1.364707947E-3
2.095185151E1,-1.203155518E-2,-1.769006252E-3,5.396080017E-2
2.096784272E1,4.463747144E-3,1.670652628E-2,8.965206146E-2
2.098383393E1,-1.938402653E-3,4.194551706E-2,5.569171906E-2
2.099979462E1,3.045499325E-4,1.714807749E-2,-5.741405487E-2
2.101575532E1,-1.078331470E-2,-2.898412943E-2,-1.847085953E-1
2.103177705E1,6.112039089E-3,-3.001761436E-2,9.145736694E-3
2.104773774E1,1.367229223E-2,-3.000682592E-2,1.073026657E-1
2.106372895E1,-1.537695527E-2,2.246117592E-2,-5.440711975E-3
2.107968964E1,-1.722559333E-2,1.704984903E-2,2.063751221E-2
2.109561982E1,-1.718091965E-2,-1.876592636E-3,-3.462028503E-2
2.111158051E1,8.530020714E-4,-9.472370148E-3,-2.509021759E-2
2.112757172E1,-3.075599670E-4,-2.373480797E-2,1.042222977E-1
2.114356293E1,-2.894426882E-2,-3.789484501E-2,7.058334351E-2
2.115952363E1,-1.369832456E-2,-2.926105261E-2,3.190040588E-2
2.117551484E1,-1.889798045E-2,-1.289463043E-2,-2.368450165E-2
2.119144501E1,-2.035769820E-2,2.207815647E-3,-1.175136566E-1
2.120740571E1,-9.732142091E-3,1.207631826E-2,1.624107361E-2
2.122339692E1,-1.898150146E-2,-1.878213882E-2,6.381702423E-2
2.123932709E1,-2.612233162E-2,-1.305139065E-2,8.332252502E-3
2.125531830E1,-2.792216837E-2,-2.988326550E-2,-1.609802246E-2
2.127127900E1,-3.898780048E-2,1.622128487E-2,-9.359359741E-3
2.128730073E1,-1.465852559E-2,4.157263041E-2,-2.170944214E-2
2.130329194E1,-2.215443552E-2,2.846431732E-2,2.340602875E-2
2.131925263E1,-2.276535332E-2,-1.934862137E-2,-1.055622101E-2
2.133524384E1,-6.278574467E-3,-3.797179461E-2,-3.935813904E-3
2.135117402E1,-1.849119365E-2,-4.329872131E-2,4.584312439E-3
2.136716523E1,-2.069444954E-2,-1.651406288E-2,-1.018714905E-2
2.138318696E1,1.193821430E-3,-4.491746426E-3,-2.540206909E-2
2.139914765E1,-5.935847759E-3,-8.058965206E-3,4.005432129E-5
2.141513886E1,-5.511581898E-3,4.087924957E-3,-1.046848297E-2
2.143106904E1,-1.451836526E-2,3.030973673E-2,-1.138973236E-2
2.144706025E1,-1.884059608E-2,2.286267281E-2,2.123165131E-2
2.146308198E1,-3.045462817E-2,7.409632206E-3,2.750682831E-2
2.147904267E1,-2.493053675E-2,-3.498166800E-3,-2.605819702E-2
2.149500336E1,-9.661331773E-3,3.169447184E-3,-4.603481293E-2
2.151099457E1,-1.663082838E-2,8.704394102E-3,-2.521514893E-2
2.152695527E1,-1.968763769E-2,1.969984174E-2,1.961517334E-2
2.154294648E1,-2.671126276E-2,5.853980780E-3,2.132606506E-2
2.155890717E1,-2.051891387E-2,-1.590505242E-2,-5.599308014E-2
2.157489838E1,-1.499971747E-2,-3.575593233E-3,-6.621360779E-2
2.159092011E1,1.860633492E-3,-4.847884178E-3,7.427215576E-3
2.160691132E1,-1.238679886E-2,3.081950545E-2,1.193532944E-1
2.162293305E1,-1.950764656E-2,4.819768667E-2,6.119441986E-2
2.163889374E1,-2.931513637E-2,2.552810311E-2,-1.430158615E-1
2.165485444E1,-1.620326936E-2,4.922099411E-2,-1.187896729E-2
2.167087617E1,-2.625505626E-2,4.110696912E-2,-2.668190002E-2
2.168683686E1,-5.023084581E-2,1.804848015E-2,-1.563701630E-1
2.170285859E1,1.446411014E-3,2.809892595E-2,2.838678360E-1
2.171878876E1,2.747175097E-2,-1.414158940E-2,1.231365204E-1
2.173474946E1,-8.237794042E-3,-2.675630152E-2,-1.980361938E-1
2.175074067E1,-2.901352942E-2,-4.863813519E-3,-3.634796143E-1
2.176670136E1,-4.067704827E-2,4.380752146E-2,-3.798484802E-2
2.178263154E1,1.307639480E-2,7.036840916E-2,2.299928665E-1
2.179862275E1,-3.463238478E-3,3.472460061E-2,1.963615417E-1
2.181461396E1,-2.331556380E-2,4.792660475E-3,5.226325989E-2
2.183057465E1,-2.515916526E-2,3.993743658E-2,-2.448272705E-2
2.184659638E1,-2.934603393E-2,6.593763828E-2,-4.863834381E-2
2.186258759E1,-3.991769999E-2,4.894888774E-2,-2.482509613E-2
2.187860932E1,-4.450190812E-2,3.399296105E-2,-2.249908447E-2
2.189460053E1,-1.853068173E-2,1.086188108E-2,-2.731704712E-2
2.191059174E1,-4.054576159E-3,-6.470378488E-3,-2.972602844E-2
2.192658295E1,-3.389269114E-3,-4.232259467E-3,-1.297187805E-2
2.194257416E1,-2.232925594E-2,2.156987227E-2,8.592605591E-3
2.195853486E1,-1.925747097E-2,3.990069777E-2,3.829002380E-3
2.197452607E1,-1.553043723E-2,3.334966302E-2,6.255149841E-3
2.199045624E1,-2.322722971E-2,4.049262032E-2,1.510620117E-3
2.200644746E1,-9.196415544E-3,3.829212114E-2,2.312088013E-2
2.202246918E1,2.669380605E-2,4.051467404E-2,2.080440521E-2
2.203842988E1,-8.300676942E-3,6.418576837E-2,-2.455902100E-2
2.205442109E1,1.717060804E-4,2.102746069E-2,-1.273908615E-1
2.207035126E1,-1.092514396E-2,1.714840531E-2,-3.151607513E-2
2.208631196E1,-3.157797456E-2,1.217910647E-2,-1.465606689E-2
2.210230317E1,-1.813159883E-2,2.294054627E-2,4.770278931E-2
2.211823334E1,-4.503577948E-3,2.428487688E-2,4.305362701E-2
2.213419404E1,-7.365092635E-3,3.294397891E-2,9.711265564E-3
2.215021577E1,1.129050553E-2,5.688340962E-2,-7.629966736E-2
2.216617646E1,2.287551761E-3,6.574447453E-2,4.120922089E-2
2.218216767E1,1.100817323E-2,5.383932590E-2,-8.852958679E-3
2.219815888E1,-1.167981327E-2,4.429294169E-2,1.053524017E-2
2.221415009E1,-1.180498302E-2,2.455030382E-2,-1.200675964E-3
2.223017182E1,8.875131607E-4,2.581030130E-2,-1.293087006E-2
2.224613251E1,-1.481527090E-2,1.922036707E-2,-2.703380585E-2
2.226206269E1,8.674561977E-4,9.758919477E-4,-5.071353912E-2
2.227805390E1,-3.148585558E-2,1.215329766E-2,-2.890396118E-2
2.229404511E1,-3.808611631E-2,1.195389032E-2,-2.863407135E-2
2.230997529E1,-3.270186484E-2,4.639391601E-2,-6.834983826E-3
2.232596650E1,-3.409609199E-2,5.489256978E-2,1.016521454E-2
2.234195771E1,-1.625837386E-2,6.308063865E-2,3.236770630E-3
2.235791840E1,-8.175596595E-3,6.338229775E-2,8.312225342E-3
2.237390961E1,-1.249600947E-2,4.625171423E-2,1.102924347E-2
2.238983979E1,-4.755347967E-3,3.387713432E-2,-1.018619537E-2
2.240580048E1,7.825627923E-3,3.122270107E-2,-1.702976227E-2
2.242173066E1,-1.325969398E-2,3.875651956E-2,-3.106403351E-2
2.243772187E1,-5.564704537E-3,2.078986168E-2,-2.356910706E-2
2.245371308E1,-1.660872996E-2,3.653016686E-2,1.264858246E-2
2.246970429E1,-3.248001635E-2,4.718762636E-2,8.182525635E-3
2.248563447E1,-7.613480091E-3,3.789338470E-2,-3.431320190E-3
2.250162568E1,-1.791194081E-3,3.787237406E-2,-6.618499756E-4
2.251758637E1,-1.768013835E-2,2.212825418E-2,-2.904224396E-2
2.253357758E1,2.156454325E-2,4.822054505E-2,9.577751160E-3
2.254950776E1,-2.485269308E-2,2.430424094E-2,-6.434726715E-2
2.256549897E1,-2.459213138E-3,2.509143949E-2,1.015949249E-2
2.258152070E1,-4.232361913E-3,5.658113956E-2,8.945465088E-4
2.259745087E1,-2.495118976E-2,4.670864344E-2,-1.313209534E-2
2.261338105E1,-1.444058120E-2,4.681578279E-2,-1.998901367E-2
2.262940278E1,-1.096414030E-2,2.818387747E-2,-1.728343964E-2
2.264539399E1,-8.791685104E-7,2.715262771E-2,-2.527236938E-4
2.266138520E1,9.402036667E-4,5.030545592E-2,2.193450928E-5
2.267734589E1,-7.740184665E-3,5.423802137E-2,2.699851990E-3
2.269333710E1,-6.601721048E-3,3.156986833E-2,2.453994751E-2
2.270935883E1,-3.092981875E-2,5.858349800E-2,8.993148804E-4
2.272531952E1,-2.142159641E-2,4.472237825E-2,-3.231239319E-2
2.274124970E1,-1.190094650E-2,2.204066515E-2,-7.992076874E-2
2.275724091E1,-2.892656624E-2,2.308183908E-2,-8.213329315E-2
2.277323212E1,-1.062396169E-2,2.797320485E-2,4.967689514E-2
2.278919282E1,-2.076804638E-3,5.227351189E-2,1.480741501E-1
2.280515351E1,-1.983089745E-2,4.364922643E-2,1.204395294E-2
2.282114472E1,-1.144842803E-2,2.197146416E-2,-1.119489670E-1
2.283710541E1,-1.273104548E-2,2.560415864E-2,-4.937171936E-2
2.285309663E1,-3.850381076E-2,3.188610077E-2,-2.761173248E-2
2.286902680E1,-5.033117533E-2,8.374392986E-3,-1.400442123E-1
2.288501801E1,1.093529165E-2,7.882913947E-2,2.859783173E-1
2.290103974E1,2.756233513E-2,4.410073161E-2,1.209650040E-1
2.291703095E1,7.614776492E-3,5.726695061E-3,-1.680994034E-1
2.293302216E1,-1.636904478E-2,-1.720339060E-2,-2.849702835E-1
2.294901337E1,-2.545483410E-2,8.919239044E-3,-1.365957260E-1
2.296494355E1,1.938411593E-2,5.012738705E-2,7.383346558E-2
2.298090424E1,2.097538114E-2,5.725938082E-2,1.910495758E-1
2.299692597E1,4.117482901E-2,3.431540728E-2,1.194553375E-1
2.301291718E1,8.345425129E-3,7.012063265E-2,-1.419544220E-2
2.302887788E1,-2.949565649E-3,7.725179195E-2,-6.165027618E-2
2.304486909E1,-1.680400968E-2,9.097152948E-2,-2.300167084E-2
2.306089081E1,-2.521331608E-2,4.628115892E-2,-3.711700439E-2
2.307685151E1,-3.764517605E-2,7.479488850E-3,-2.258205414E-2
2.309284272E1,-2.428813279E-2,3.862380981E-5,-1.283264160E-2
2.310877289E1,-6.479620934E-3,2.104157209E-2,4.003810883E-2
2.312473359E1,1.172557473E-2,2.418887615E-2,6.422996521E-2
2.314075532E1,-1.978734136E-2,5.552434921E-2,-4.935264587E-3
2.315674653E1,-2.432873845E-2,6.399786472E-2,1.440906525E-2
2.317270722E1,-3.535805643E-2,4.336714745E-2,4.319763184E-2
2.318869843E1,-1.021009684E-2,4.611730576E-2,-1.671028137E-2
2.320465913E1,-1.091548800E-2,7.090675831E-2,1.005134583E-1
2.322061982E1,-6.259500980E-3,5.029630661E-2,-1.222610474E-1
2.323661103E1,1.003837585E-2,1.335358620E-2,-9.618663788E-2
2.325260224E1,-3.511428833E-3,-3.413975239E-2,-2.693271637E-2
2.326859345E1,-1.167953014E-3,-3.074371815E-2,-7.041072845E-2
2.328455414E1,-1.091986895E-2,2.200859785E-2,3.485679626E-3
2.330054536E1,4.709661007E-3,3.151482344E-2,7.994079590E-2
2.331650605E1,-9.690910578E-3,3.571033478E-2,-2.776527405E-2
2.333249726E1,5.547702312E-5,3.688019514E-2,-3.967285156E-2
2.334842744E1,2.887755632E-3,3.227502108E-2,-2.054023743E-2
2.336438813E1,7.515698671E-4,4.994511604E-2,-2.059745789E-2
2.338031830E1,8.283555508E-5,6.462794542E-2,3.207492828E-2
2.339630952E1,-1.248478889E-3,6.092941761E-2,8.237838745E-3
2.341230073E1,-3.104627132E-3,5.830740929E-2,1.246452332E-3
2.342829194E1,2.163976431E-3,4.112553596E-2,-5.731582642E-3
2.344425263E1,-8.818030357E-3,5.412757397E-3,-4.627513885E-2
2.346024384E1,-7.706463337E-3,4.026114941E-3,2.566242218E-2
2.347620454E1,-2.552609146E-2,-1.087784767E-4,9.027481079E-3
2.349219575E1,-2.340774238E-2,5.140364170E-3,-4.113578796E-2
2.350812592E1,-3.512491286E-2,6.574213505E-3,-2.781867981E-3
2.352411713E1,-1.612141728E-2,8.619546890E-3,1.879024506E-2
2.354013886E1,-1.412701607E-2,3.372955322E-2,-1.943778992E-2
2.355613007E1,-1.969063282E-2,4.137116671E-2,-1.930809021E-2
2.357212128E1,-8.898377419E-4,1.700460911E-2,-1.211166382E-4
2.358811249E1,-1.083779335E-2,1.403605938E-2,-1.444435120E-2
2.360407319E1,-1.464426517E-3,2.551060915E-2,3.347301483E-2
2.362000336E1,-8.429884911E-3,1.751476526E-2,-2.873516083E-2
2.363599457E1,-2.010285854E-2,2.389359474E-2,4.820823669E-3
2.365201630E1,-2.644486725E-2,2.591097355E-2,-2.869892120E-2
2.366800751E1,1.035869122E-3,1.635324955E-2,1.915454865E-2
2.368399872E1,-1.220276952E-2,1.900166273E-2,1.671600342E-2
2.369998994E1,-3.964513540E-3,9.131848812E-3,-2.639102936E-2
2.371595063E1,-7.584601641E-3,6.919682026E-3,-8.868122101E-2
2.373191132E1,4.282593727E-4,4.136204720E-3,-4.332637787E-2
2.374793305E1,8.503288031E-3,2.498805523E-3,2.829933167E-2
2.376389374E1,-3.255903721E-4,2.748626471E-2,6.652832031E-2
2.377988496E1,6.854832172E-3,4.085773230E-2,8.573818207E-2
2.379587617E1,1.541227102E-3,1.500666142E-3,-1.151666641E-1
2.381186738E1,-3.011728823E-2,4.741764069E-2,-4.082202911E-2
2.382785859E1,-4.330521822E-2,5.668950081E-2,-2.401351929E-2
2.384381928E1,-1.750113070E-2,3.432816267E-2,-6.964111328E-2
2.385977997E1,4.835273325E-2,9.800088406E-2,2.580566406E-1
2.387580170E1,4.633224010E-2,3.181457520E-3,-1.105175018E-1
2.389182343E1,-4.017332196E-2,-7.509219646E-2,-2.108478546E-1
2.390781464E1,-1.600348949E-2,-1.686578989E-2,-1.007728577E-1
2.392377534E1,-3.636728227E-2,-2.115207911E-2,2.106761932E-2
2.393976655E1,2.358734608E-3,7.813274860E-3,9.752464294E-2
2.395572724E1,3.791594505E-2,5.441117287E-2,1.191530228E-1
2.397171845E1,8.329570293E-3,6.925106049E-2,4.519653320E-2
2.398767914E1,-3.427267075E-4,9.526765347E-2,-7.897472382E-2
2.400363984E1,-2.172720432E-2,4.861986637E-2,-6.195354462E-2
2.401960053E1,-3.631235659E-2,2.092838287E-2,-2.110385895E-2
2.403559174E1,-4.774306715E-2,7.695496082E-3,-3.773975372E-2
2.405158295E1,-2.697381377E-2,-3.450334072E-2,-1.719474792E-3
2.406757416E1,6.240099669E-3,-2.190047503E-2,3.669834137E-2
2.408356538E1,1.201093197E-3,-2.678275108E-3,8.108139038E-3
2.409958710E1,-8.896589279E-3,1.899826527E-2,1.783084869E-2
2.411557831E1,-1.691269875E-2,4.156398773E-2,5.963325500E-3
2.413156952E1,-2.702105045E-2,3.146845102E-2,3.473854065E-2
2.414756074E1,-3.446716070E-2,4.811728001E-2,3.235816956E-2
2.416352143E1,-2.647146583E-2,3.291177750E-2,5.153846741E-2
2.417945160E1,1.436442137E-3,5.064988136E-2,-4.419231415E-2
2.419544282E1,-5.203843117E-3,3.306901455E-2,2.048492432E-2
2.421143403E1,-1.124992967E-2,1.430511475E-5,-6.576442719E-2
2.422745576E1,-1.473855972E-2,-2.757072449E-3,-1.803398132E-2
2.424338593E1,-1.837408543E-2,-1.681154966E-2,-2.301120758E-2
2.425931611E1,-2.574145794E-3,4.636788368E-2,1.745891571E-2
2.427533784E1,1.471996307E-3,5.646163225E-2,4.837131500E-2
2.429129853E1,-8.390426636E-3,3.463828564E-2,-3.560447693E-2
2.430732026E1,1.287487149E-2,2.634429932E-2,-2.629280090E-2
2.432321992E1,-9.997695684E-3,3.634613752E-2,2.605819702E-2
2.433921113E1,-4.539757967E-3,1.327282190E-2,3.051185608E-2
2.435517182E1,1.020514965E-2,1.617538929E-2,2.528858185E-2
2.437116303E1,-8.858591318E-3,4.359543324E-3,-2.273845673E-2
2.438709321E1,-1.067906618E-3,2.218014002E-2,-2.067661285E-2
2.440311494E1,-9.577363729E-3,2.016156912E-2,-2.829265594E-2
2.441910615E1,-1.267307997E-2,1.199501753E-2,3.585338593E-2
2.443506684E1,-1.317644119E-2,1.192432642E-2,4.488849640E-2
2.445105805E1,-3.956660628E-2,-2.677768469E-3,-5.926132202E-3
2.446698823E1,-3.362290561E-2,-4.555106163E-3,-1.118640900E-1
2.448297944E1,-1.811151206E-2,-1.131087542E-3,-8.864402771E-2
2.449897065E1,-1.894442737E-2,-7.707685232E-3,6.617450714E-2
2.451493134E1,8.396402001E-3,1.963043213E-2,1.421108246E-1
2.453092255E1,6.028562784E-3,2.322363853E-2,2.196884155E-2
2.454691376E1,-4.281575978E-2,1.778057218E-2,-9.566879272E-2
2.456284394E1,-1.546436548E-2,1.050710678E-3,-4.582881927E-2
2.457877412E1,-4.872061312E-2,1.115119457E-2,-3.917789459E-2
2.459476533E1,-1.318030059E-2,-1.053097844E-2,-8.529376984E-2
2.461075654E1,2.486526966E-3,2.239197493E-2,1.510152817E-1
2.462674775E1,4.552370310E-2,-8.831024170E-4,2.598762512E-2
2.464273896E1,1.543605328E-2,-1.860442758E-2,-1.131610870E-1
2.465873017E1,-9.838566184E-3,-2.787542343E-2,-9.187889099E-2
2.467469086E1,-3.611122072E-2,-2.997168899E-2,-2.999782562E-2
2.469068207E1,-5.610197783E-3,1.857876778E-4,6.399154663E-4
2.470664277E1,-2.380439639E-2,3.696009517E-2,8.874034882E-2
2.472263398E1,6.712377071E-4,6.013923883E-2,9.072494507E-2
2.473865571E1,-1.623265445E-2,2.864518762E-2,1.378917694E-2
2.475464692E1,-2.407819033E-2,4.873037338E-3,-6.074905396E-2
2.477063813E1,-3.484088182E-2,-1.473098993E-2,-2.278614044E-2
2.478662934E1,-2.937820554E-2,-2.605055273E-2,1.038646698E-2
2.480255952E1,-2.554444969E-2,-1.669208705E-2,2.921390533E-2
2.481855073E1,-1.615808904E-2,-1.343449950E-2,-4.601478577E-3
2.483451142E1,-1.677885652E-3,-1.801660657E-2,-2.403354645E-2
2.485050263E1,-2.597269416E-2,-5.473688245E-3,-3.566741943E-4
2.486643281E1,-2.436767519E-2,-1.647982001E-2,6.573677063E-3
2.488242402E1,-1.822926104E-2,-2.717481554E-2,1.590919495E-2
2.489844575E1,-3.783777356E-2,-7.028639317E-3,3.700256348E-3
2.491437592E1,-3.736473620E-2,1.511673629E-2,3.458786011E-2
2.493036713E1,-1.050144434E-2,1.720389724E-2,8.554458618E-4
2.494638886E1,-9.146243334E-3,4.204893112E-2,8.689403534E-2
2.496234955E1,-7.555931807E-3,-3.198555112E-2,-8.802413940E-2
2.497827973E1,-1.967215538E-2,-3.092447668E-2,-1.600112915E-1
2.499427094E1,5.177274346E-3,-2.674582601E-2,2.178192139E-2
2.501026215E1,1.185877621E-2,3.100186586E-3,7.433605194E-2
2.502622285E1,-1.448810101E-2,-1.377403736E-3,3.355312347E-2
2.504224457E1,-1.377305388E-2,1.738294959E-2,-1.680946350E-2
2.505823578E1,-1.763062179E-2,2.389065176E-2,-6.000709534E-2
2.507419648E1,-1.704706252E-2,-2.210378647E-3,1.649284363E-2
2.509018769E1,4.769265652E-4,-2.589977533E-2,4.989337921E-2
2.510611786E1,-1.086108387E-2,-5.048008263E-2,1.868057251E-2
2.512210908E1,6.830587983E-3,-7.175070047E-2,-6.279373169E-2
2.513813080E1,-3.044350445E-2,-2.648548223E-2,-3.651237488E-2
2.515412202E1,-3.125952184E-2,-4.802962765E-2,-5.811214447E-2
2.517011323E1,-1.323284209E-2,-1.703841984E-2,5.438423157E-2
2.518610444E1,-2.228866518E-2,-2.512945235E-2,-1.012430191E-1
2.520206513E1,-1.236490905E-2,-2.060046792E-2,-3.658580780E-2
2.521799531E1,-1.660080254E-2,1.232115924E-2,8.935928345E-3
2.523398652E1,-1.098157465E-2,9.953923523E-3,1.669893265E-1
2.525000825E1,-2.782851458E-3,5.654666573E-3,4.011821747E-2
2.526599946E1,-3.145880997E-2,1.223822683E-2,-1.489973068E-1
2.528199067E1,-3.792387247E-2,2.477755398E-2,-3.638839722E-2
2.529798188E1,-2.357298136E-2,-8.677646518E-3,-1.717281342E-2
2.531394257E1,-1.542168856E-2,-3.851971030E-2,-1.104135513E-1
2.532993378E1,3.162473440E-3,-1.085184515E-3,2.153749466E-1
2.534589448E1,1.647114754E-2,-6.975020468E-2,8.627223969E-2
2.536185517E1,-2.441361547E-3,-7.198229432E-2,-1.314487457E-1
2.537787690E1,-4.750783741E-2,-4.887026548E-2,-1.600065231E-1
2.539386811E1,4.345849156E-3,-2.886123955E-2,-5.209255219E-2
2.540985932E1,-7.551461458E-3,-8.962303400E-3,5.581092834E-2
2.542585053E1,1.183734834E-2,3.637604415E-2,1.014614105E-1
2.544181122E1,8.310765028E-3,2.912044525E-2,6.331062317E-2
2.545774140E1,-7.790058851E-3,1.426017284E-2,-1.792526245E-2
2.547373261E1,-2.882212400E-2,7.104128599E-4,-3.208351135E-2
2.548972382E1,-4.518903792E-2,-2.549603581E-2,-3.182506561E-2
2.550568452E1,-3.251123428E-2,-3.917443752E-2,-4.590892792E-2
2.552167573E1,-2.045795321E-2,-2.887806296E-2,2.143859863E-2
2.553766694E1,5.392476916E-3,-4.247912765E-2,5.762577057E-2
2.555362763E1,-2.140843868E-2,-3.307899833E-2,-2.036094666E-3
2.556961884E1,-9.234443307E-3,-2.538612485E-2,7.681846619E-3
2.558554902E1,-3.173290193E-2,-5.850970745E-3,-4.234409332E-2
2.560150971E1,-2.883730829E-2,-5.968064070E-3,-5.897808075E-2
2.561743989E1,-2.598029375E-2,-1.631200314E-3,4.669952393E-2
2.563343110E1,-1.739889383E-3,6.821006536E-3,1.451883316E-1
2.564942231E1,-2.577774227E-2,-9.830474854E-3,6.557464600E-3
2.566541352E1,2.744957805E-3,-2.249532938E-2,-2.435493469E-2
2.568134370E1,-3.862768412E-2,-7.164952159E-2,-2.874727249E-1
2.569733491E1,-1.123549044E-2,-9.410828352E-3,-2.363777161E-2
2.571329560E1,-2.584844828E-3,-4.245996475E-2,2.378759384E-1
2.572928681E1,-1.871468127E-2,-1.312234998E-2,3.464603424E-2
2.574521699E1,-3.230787814E-2,8.130431175E-3,-8.495140076E-2
2.576120820E1,-1.386851072E-3,2.446919680E-2,-5.121231079E-2
2.577716889E1,-4.075154662E-3,1.985609531E-2,2.818107605E-2
2.579319062E1,-3.601759672E-4,-1.971283555E-2,9.566497803E-2
2.580915131E1,-1.066741347E-2,-3.772112727E-2,8.644104004E-2
2.582517304E1,-2.204006910E-2,-3.628155589E-2,-6.683349609E-3
2.584113373E1,-9.927898645E-3,-2.227994800E-2,-1.117830276E-1
2.585709443E1,-1.979118586E-2,-3.623750806E-2,-6.589698792E-2
2.587311616E1,-2.724190056E-2,-4.844382405E-2,6.152153015E-2
2.588913788E1,-3.264185786E-2,-5.984884501E-2,8.593463898E-2
2.590512910E1,-2.680459619E-2,-3.038465977E-2,-2.624416351E-2
2.592112031E1,-3.909838200E-2,-1.543408632E-2,-8.097934723E-2
2.593711152E1,-1.891820133E-2,-3.940165043E-3,-2.309799194E-2
2.595307221E1,6.424486637E-4,-4.041343927E-3,-1.306438446E-2
2.596909394E1,-1.709505916E-3,-1.422396302E-2,1.262474060E-1
2.598502412E1,-1.590782404E-2,-3.324934840E-2,1.791658401E-1
2.600104584E1,-5.556920916E-2,-1.377969980E-3,-8.417606354E-2
2.601703705E1,-5.392584950E-2,8.702814579E-3,-1.391201019E-1
2.603299775E1,-2.788621187E-2,1.056694984E-2,2.894687653E-2
2.604895844E1,-3.046029806E-2,-1.945102215E-2,-7.343769073E-2
2.606494965E1,6.331652403E-4,-3.854113817E-2,1.815319061E-2
2.608094086E1,3.474107385E-2,-6.313693523E-2,3.084650040E-1
2.609693207E1,1.260806620E-2,-5.050134659E-2,-1.461763382E-1
2.611292328E1,-2.348752320E-2,-4.933750629E-2,-2.535924911E-1
2.612891450E1,-4.862356186E-2,-4.298466444E-2,-6.854248047E-2
2.614490571E1,-8.246004581E-3,1.761317253E-4,2.075948715E-1
2.616086640E1,3.266125917E-3,-2.796769142E-3,1.027116776E-1
2.617679658E1,1.094129682E-2,9.969413280E-3,-2.490997314E-3
2.619278779E1,-1.285254955E-3,-3.424525261E-3,-3.340721130E-2
2.620877900E1,-4.606854171E-2,1.021265984E-3,1.057538986E-1
2.622477021E1,-6.147121638E-2,-7.225811481E-3,1.980876923E-2
2.624076142E1,-6.016575545E-2,-2.622681856E-2,3.183364868E-3
2.625675263E1,-1.240676641E-2,-3.072553873E-2,-5.414962769E-2
2.627271332E1,-1.140879095E-2,-3.838497400E-2,-2.995491028E-2
2.628870454E1,-9.336858988E-3,-3.038704395E-2,1.110267639E-2
2.630463471E1,-1.935508847E-2,-4.687160254E-2,2.579593658E-2
2.632062592E1,-5.078557134E-2,-4.315775633E-2,1.885318756E-2
2.633664765E1,-2.192597091E-2,-3.864216805E-2,1.180458069E-2
2.635257783E1,-3.312024474E-2,-1.550167799E-2,-1.204776764E-2
2.636853852E1,-1.363928616E-2,-2.450942993E-4,7.898426056E-2
2.638456025E1,1.460617781E-2,1.520216465E-3,1.076812744E-1
2.640052094E1,-7.866710424E-3,-6.299018860E-4,-1.933383942E-2
2.641645112E1,-2.816849947E-2,-5.208742619E-2,-1.916589737E-1
2.643244233E1,-1.511473954E-2,-3.143954277E-2,-7.395458221E-2
2.644843354E1,1.113393903E-2,-3.458613157E-2,1.660423279E-1
2.646445527E1,-1.194410026E-2,1.222294569E-2,2.740955353E-2
2.648041596E1,-2.594293654E-2,1.768153906E-2,-4.202270508E-2
2.649640717E1,-1.143214107E-2,2.629423141E-2,-3.717994690E-2
2.651239838E1,-3.996670246E-3,-2.279806137E-2,2.051544189E-2
2.652838959E1,3.977850080E-3,-4.985582829E-2,9.742832184E-2
2.654438080E1,-9.905800223E-3,-4.356372356E-2,1.167125702E-1
2.656037202E1,-2.453514934E-2,-2.371871471E-2,-1.747322083E-2
2.657636323E1,-2.000959218E-2,-4.425281286E-2,-1.349153519E-1
2.659232392E1,-1.544491947E-2,-1.607567072E-2,-4.863452911E-2
2.660831513E1,-1.064002514E-2,-3.469645977E-2,6.648445129E-2
2.662430634E1,-1.165691018E-2,-5.810552835E-2,4.977703094E-2
2.664029755E1,-2.876836061E-2,-1.901286840E-2,-2.215290070E-2
2.665631928E1,-4.334938526E-2,-5.938172340E-3,-1.266002655E-2
2.667224946E1,-3.062444925E-2,1.273566484E-2,4.236316681E-2
2.668821015E1,-9.320050478E-3,-4.696428776E-3,2.552604675E-2
2.670420136E1,8.934199810E-3,-8.078217506E-4,-4.638385773E-2
2.672010102E1,-1.091213524E-2,-3.678500652E-3,-2.725219727E-2
2.673609223E1,1.521408558E-5,-1.549458504E-2,6.136035919E-2
2.675205292E1,-1.439768076E-2,-3.135645390E-2,1.163282394E-1
2.676804413E1,-2.576944232E-2,-1.701390743E-2,-3.004741669E-2
2.678400483E1,-3.937362134E-2,-5.899906158E-3,-1.429595947E-1
2.679996552E1,-8.840292692E-3,-6.479322910E-3,7.233333588E-2
2.681595673E1,-4.813104123E-2,-3.577154875E-2,6.018352509E-2
2.683194794E1,-1.830761135E-2,-9.577929974E-3,-1.626958847E-1
2.684793915E1,1.401160657E-2,2.124911547E-2,2.946796417E-1
2.686393036E1,2.718208730E-2,-4.616606236E-2,2.461433411E-3
2.687986054E1,-5.713522434E-3,-5.048215389E-2,-2.635889053E-1
2.689585175E1,-5.671800673E-2,-5.452889204E-2,-2.059907913E-1
2.691187348E1,-3.443999588E-2,-8.100032806E-3,1.223726273E-1
2.692789521E1,3.508165479E-3,-6.960451603E-3,2.636327744E-1
2.694385590E1,1.267150044E-3,6.258308887E-3,1.026430130E-1
2.695987763E1,-1.465220749E-2,3.583818674E-2,-6.103134155E-2
2.697586884E1,-3.587657958E-2,3.404313326E-2,-6.413650513E-2
2.699182954E1,-3.423306346E-2,1.824456453E-2,-2.634334564E-2
2.700782075E1,-4.037826508E-2,-2.601420879E-2,5.218505859E-2
2.702375092E1,-2.587273717E-2,-6.243181229E-2,3.482723236E-2
2.703971162E1,-6.456822157E-4,-6.983834505E-2,1.973438263E-2
2.705564179E1,-1.911891997E-2,-3.675091267E-2,2.127838135E-2
2.707166352E1,6.908476353E-4,-1.773560047E-2,-2.994060516E-2
2.708765473E1,-8.131161332E-3,-1.216137409E-2,1.216506958E-2
2.710364594E1,-2.700403333E-2,-1.033589244E-2,6.361007690E-3
2.711957612E1,-3.431306034E-2,-1.757025719E-3,1.973628998E-2
2.713553681E1,-1.727272570E-2,-3.392815590E-3,9.297084808E-2
2.715152802E1,-2.622365952E-3,2.055966854E-2,-3.010654449E-2
2.716754975E1,1.090046763E-2,3.530716896E-2,1.249313354E-4
2.718347992E1,3.279998899E-3,1.870462298E-2,-1.395063400E-1
2.719950165E1,-1.087023318E-2,-3.323617578E-2,8.306503296E-3
2.721549286E1,-3.613302857E-2,-2.280277014E-2,6.755161285E-2
2.723145356E1,-1.859065890E-2,8.239477873E-3,-3.365516663E-2
2.724741425E1,-6.006509066E-4,3.038829565E-2,2.559757233E-2
2.726343598E1,-5.573034286E-3,2.880501747E-2,3.462696075E-2
2.727939667E1,-6.711587310E-3,1.098757982E-2,-1.778602600E-3
2.729538788E1,-1.142051816E-2,3.008109331E-2,2.586364746E-3
2.731134858E1,-1.689536870E-2,4.201412201E-3,4.754447937E-2
2.732730927E1,-1.371219754E-2,6.072968245E-3,3.300285339E-2
2.734330048E1,-4.502693564E-2,-7.700726390E-3,-2.003002167E-2
2.735926118E1,-1.443627477E-2,-1.131810248E-2,-5.150699615E-2
2.737522187E1,-3.947742283E-2,-8.624181151E-3,-5.901241302E-2
2.739124360E1,-1.208785176E-2,3.754737973E-2,-1.142024994E-2
2.740726533E1,-1.220999658E-2,5.409543216E-2,3.858757019E-2
2.742325654E1,-2.913221717E-3,2.847100794E-2,3.831672668E-2
2.743918671E1,-2.223227918E-2,2.840185910E-2,1.411628723E-2
2.745517792E1,-3.191336244E-2,3.625039756E-2,-4.701614380E-4
2.747113862E1,-1.304811239E-2,5.227521062E-2,-1.022624969E-2
2.748712983E1,-2.529302239E-2,4.337076098E-2,8.784294128E-3
2.750306000E1,-4.361495376E-3,2.360383421E-2,-4.160308838E-2
2.751902070E1,-1.191374660E-2,5.343072116E-3,-2.014064789E-2
2.753495087E1,-5.523383617E-3,4.196397960E-3,3.965091705E-2
2.755094208E1,4.447698593E-4,-5.481399596E-3,3.720378876E-2
2.756693330E1,-9.991377592E-3,4.963684827E-3,-3.546714783E-3
2.758295502E1,-1.539996266E-2,1.045381371E-2,-2.273464203E-2
2.759885468E1,5.764961243E-4,2.639526688E-2,2.034854889E-2
2.761484589E1,-7.797390223E-3,2.588375658E-2,3.712081909E-2
2.763086762E1,-1.641280949E-2,2.761319466E-2,3.632545471E-3
2.764688935E1,3.356263041E-3,1.939454302E-2,-1.546764374E-2
2.766285004E1,-8.270457387E-3,4.043822736E-2,8.549690247E-3
2.767884125E1,-2.461962402E-2,3.299016133E-2,1.582050323E-2
2.769486298E1,-1.470391452E-2,3.273947537E-2,3.954887390E-3
2.771079316E1,-2.809730172E-2,2.552717924E-2,-5.515098572E-3
2.772672333E1,-3.160090744E-2,3.514494002E-2,-1.257991791E-2
2.774274506E1,-2.772153914E-2,3.556010872E-2,1.148700714E-2
2.775870576E1,-1.702536643E-2,2.667708695E-2,6.839752197E-3
2.777469697E1,-1.684159040E-3,2.728565782E-2,-1.933860779E-2
2.779065766E1,-1.475174725E-2,2.841638029E-2,-1.678466797E-2
2.780661835E1,-3.261651099E-2,1.310335100E-2,4.929542542E-3
2.782260956E1,-7.009953260E-4,3.584976494E-2,1.469707489E-2
2.783857026E1,-1.437535882E-2,3.703254461E-2,-1.857757568E-3
2.785453095E1,-1.142209768E-2,4.088382423E-2,5.539894104E-3
2.787052216E1,-8.390828967E-3,1.864050329E-2,1.773071289E-2
2.788651337E1,-2.874889970E-2,3.215672076E-2,2.753067017E-2
2.790250458E1,-5.172044039E-4,1.480269432E-2,8.594512939E-3
2.791843476E1,-7.776647806E-3,5.508974195E-3,-8.218383789E-2
2.793442597E1,3.292366862E-3,2.733220160E-2,-9.158992767E-2
2.795038666E1,2.766202390E-2,3.151494265E-2,4.264450073E-2
2.796637788E1,-2.044141293E-4,5.556660891E-2,1.410026550E-1
2.798230805E1,-1.308134198E-2,3.898049891E-2,2.638721466E-2
2.799826874E1,-1.414389908E-2,2.798649669E-2,-1.121120453E-1
2.801419892E1,1.267141104E-2,4.613393545E-2,-1.841545105E-2
2.803022065E1,-2.420306206E-2,5.471184850E-2,-5.403518677E-2
2.804618134E1,-6.861025095E-2,1.932218671E-2,-1.831054688E-1
2.806217255E1,1.577192545E-2,6.759142876E-2,2.981300354E-1
2.807813325E1,3.026904166E-2,3.224483132E-2,1.858425140E-1
2.809409394E1,-1.891583204E-3,-4.217529297E-2,-2.253494263E-1
2.811005463E1,-5.018524826E-2,-6.100034714E-2,-2.943773270E-1
2.812604584E1,-1.857239008E-2,1.516464353E-2,-6.208610535E-2
2.814197602E1,2.088154852E-2,8.644413948E-2,1.365995407E-1
2.815796723E1,3.097479045E-2,7.614138722E-2,1.918087006E-1
2.817398896E1,4.972079396E-2,4.727253318E-2,1.538829803E-1
2.818998017E1,-6.198644638E-3,7.424643636E-2,-6.823730469E-2
2.820597138E1,-1.372747123E-2,8.311638236E-2,2.086162567E-2
2.822196259E1,-3.071323037E-2,7.323816419E-2,-3.617858887E-2
2.823792328E1,-4.274970293E-2,3.640800714E-2,-4.060554504E-2
2.825385346E1,-3.396525979E-3,-3.731369972E-3,-2.116680145E-2
2.826984467E1,1.415428519E-2,-1.211866736E-2,-2.089500427E-2
2.828583588E1,-3.951624036E-3,1.569816470E-2,-8.666992188E-3
2.830185761E1,-1.470726728E-2,2.891576290E-2,1.554203033E-2
2.831778779E1,-9.230419993E-3,4.438138008E-2,-9.288787842E-4
2.833377900E1,-3.280207515E-2,3.152537346E-2,1.611423492E-2
2.834980073E1,-4.154342413E-2,5.260297656E-2,2.355575562E-2
2.836582246E1,-1.866027713E-2,4.480358958E-2,1.902294159E-2
2.838181367E1,1.130309701E-2,6.243333220E-2,-1.180171967E-2
2.839774384E1,-1.595343649E-2,5.322265625E-2,-1.903533936E-3
2.841373505E1,-1.553191245E-2,8.650869131E-3,-5.909633636E-2
2.842969575E1,-6.215438247E-3,-1.488992572E-2,-5.889225006E-2
2.844568696E1,-4.484897852E-2,1.065993309E-2,-2.522087097E-2
2.846161713E1,-4.868566990E-3,8.217123151E-2,2.759361267E-2
2.847763886E1,-2.232946455E-2,6.601586938E-2,1.104354858E-2
2.849363007E1,-2.270118892E-2,4.171943665E-2,8.897781372E-3
2.850959077E1,-1.384377480E-3,3.239583969E-2,2.827072144E-2
2.852558198E1,-2.279266715E-3,4.459702969E-2,2.372074127E-2
2.854157319E1,-1.785114408E-3,3.773111105E-2,4.100799561E-5
2.855753388E1,-1.129955053E-2,1.916679740E-2,-1.166820526E-2
2.857346406E1,-1.124051213E-2,3.271731734E-2,5.187988281E-4
2.858945527E1,3.762900829E-3,2.984625101E-2,-6.478309631E-3
2.860544648E1,-1.897175610E-2,2.889066935E-2,-3.501319885E-2
2.862140717E1,8.795320988E-3,1.610869169E-2,1.084327698E-3
2.863739838E1,-1.419609785E-2,2.701568604E-2,8.477210999E-3
2.865338959E1,-2.054135501E-2,3.252369165E-2,-8.035659790E-3
2.866935029E1,-3.127948940E-2,3.128558397E-2,-2.218627930E-2
2.868534150E1,-2.474890649E-2,4.986202717E-2,9.108543396E-3
2.870130219E1,-2.077658474E-2,4.927641153E-2,-2.184200287E-2
2.871726288E1,-9.515553713E-3,4.642152786E-2,-3.125095367E-2
2.873328461E1,-3.692384064E-2,3.646355867E-2,2.877712250E-2
2.874924531E1,-2.172291279E-3,2.399915457E-2,2.622604370E-3
2.876523652E1,-3.349900246E-3,1.825761795E-2,1.719570160E-2
2.878122773E1,-1.141756773E-2,3.595572710E-2,-2.567195892E-2
2.879718842E1,-1.886349916E-2,4.220461845E-2,3.244400024E-3
2.881311860E1,-1.238241792E-2,1.525300741E-2,1.060771942E-2
2.882910981E1,-3.290593624E-3,3.409665823E-2,-1.078128815E-2
2.884513154E1,-2.061805129E-2,1.969015598E-2,-1.781654358E-2
2.886109223E1,-1.375719905E-2,1.970452070E-2,1.344680786E-2
2.887711396E1,-2.099424601E-3,2.673429251E-2,8.807182312E-3
2.889310517E1,-1.909601688E-2,1.249957085E-2,-5.427360535E-3
2.890906586E1,-1.466241479E-2,4.145699739E-2,1.884460449E-3
2.892505707E1,4.409849644E-3,2.513879538E-2,2.593898773E-2
2.894098725E1,-2.430835366E-2,3.478181362E-2,1.888561249E-2
2.895697846E1,-2.149030566E-2,2.714753151E-2,-2.514839172E-3
2.897296967E1,-1.591891050E-2,2.172344923E-2,-5.264377594E-2
2.898896088E1,1.403927803E-3,-3.935635090E-3,-9.805202484E-2
2.900495209E1,1.613962650E-2,2.309745550E-2,6.103515625E-5
2.902097382E1,9.252935648E-3,4.752057791E-2,1.341018677E-1
2.903693452E1,-5.329787731E-3,2.777510881E-2,5.766201019E-2
2.905295624E1,-2.221572399E-2,2.553641796E-2,-1.120586395E-1
2.906888642E1,-2.021619678E-2,1.422321796E-2,-4.730510712E-2
2.908484711E1,-2.101197839E-2,4.810822010E-2,2.452182770E-2
2.910083832E1,-3.852538764E-2,-4.462778568E-3,-1.191158295E-1
2.911679902E1,-1.112791896E-2,2.902865410E-2,1.368350983E-1
2.913272919E1,3.895160556E-2,5.876725912E-2,2.085447311E-1
2.914875092E1,1.403048635E-2,-6.614446640E-3,-1.597547531E-1
2.916474213E1,-1.808494329E-3,-2.208107710E-2,-1.522645950E-1
2.918070283E1,-2.287003398E-2,-4.727423191E-3,-1.547803879E-1
2.919672455E1,-1.321452856E-2,4.744702578E-2,2.439975739E-2
2.921271577E1,1.065805554E-2,2.877461910E-2,1.725435257E-1
2.922867646E1,2.656418085E-2,3.396892548E-2,1.414194107E-1
2.924463715E1,1.059311628E-2,5.006533861E-2,9.955406189E-3
2.926065888E1,-1.766610146E-2,6.499266624E-2,-2.805805206E-2
2.927661957E1,-5.348677933E-2,5.736964941E-2,-1.346492767E-2
2.929254975E1,-3.121697903E-2,4.084432125E-2,-4.202365875E-2
2.930854096E1,-5.577713251E-3,-1.344478130E-2,-3.712177277E-2
2.932453217E1,-5.664914846E-3,-1.224046946E-2,-2.268505096E-2
2.934052338E1,-2.030360699E-2,1.014661789E-2,1.572036743E-2
2.935648408E1,-2.802884579E-2,2.274304628E-2,3.738689423E-2
2.937247529E1,-3.318110108E-2,3.282767534E-2,3.987312317E-3
2.938843598E1,-3.312617540E-2,2.701783180E-2,1.652717590E-3
2.940442719E1,-1.148602366E-2,3.147226572E-2,1.842880249E-2
2.942035737E1,-1.348444819E-2,3.592693806E-2,6.465911865E-3
2.943631806E1,-9.840130806E-3,3.510689735E-2,4.718017578E-2
2.945224824E1,1.303553581E-4,3.754979372E-2,-6.282615662E-2
2.946823945E1,3.137290478E-4,4.498445988E-2,-6.270503998E-2
2.948423066E1,-8.567512035E-3,1.179099083E-3,3.308582306E-2
2.950022187E1,-2.026268840E-2,4.967868328E-3,-4.587173462E-2
2.951621308E1,-1.916828752E-2,3.287696838E-2,1.400089264E-2
2.953220429E1,5.915284157E-3,6.085664034E-2,2.598476410E-2
2.954816498E1,3.819644451E-3,3.996384144E-2,-1.701450348E-2
2.956415620E1,1.746058464E-3,2.438402176E-2,-1.695156097E-2
2.958008637E1,9.139895439E-3,9.772002697E-3,4.605293274E-3
2.959600711E1,4.130750895E-3,2.429246902E-3,-1.678466797E-4
2.961199832E1,5.796909332E-3,-7.637798786E-3,-1.173019409E-4
2.962795901E1,-1.452252269E-2,6.018519402E-3,-4.831314087E-3
2.964395022E1,1.523548365E-2,5.391895771E-3,-1.672458649E-2
2.965988040E1,-9.626388550E-3,1.431256533E-2,-1.665973663E-2
2.967584109E1,-4.396630824E-2,6.718814373E-3,-7.034301758E-3
2.969186282E1,-1.364773512E-2,4.234135151E-3,-1.897811890E-2
2.970785403E1,-2.403125167E-2,2.318972349E-2,2.107620239E-4
2.972384524E1,-1.688316464E-2,2.306044102E-2,5.008697510E-3
2.973986697E1,-3.578665853E-2,2.102911472E-2,-9.386062622E-3
2.975582766E1,-2.316653728E-2,4.000043869E-2,3.609657288E-2
2.977175784E1,-3.261142969E-2,2.741277218E-2,-2.177238464E-3
2.978774905E1,-9.054064751E-3,2.899199724E-2,-2.127075195E-2
2.980374026E1,-2.689629793E-3,2.797782421E-2,-4.426956177E-3
2.981973147E1,-3.311514854E-3,2.004045248E-2,1.718521118E-2
2.983566165E1,-5.739688873E-3,3.151351213E-2,-1.937866211E-3
2.985165286E1,-1.280793548E-2,2.131778002E-2,-2.105712891E-2
2.986767459E1,-1.480755210E-2,1.134240627E-2,7.685661316E-3
2.988366580E1,7.341325283E-3,1.832997799E-2,1.486301422E-2
2.989968753E1,-1.609358191E-2,1.095801592E-2,-1.387023926E-2
2.991561770E1,-1.505136490E-3,1.588177681E-2,4.796981812E-4
2.993160892E1,-1.172155142E-3,1.337534189E-2,2.202606201E-2
2.994756961E1,2.019226551E-3,2.022290230E-2,1.005172729E-2
2.996359134E1,-6.234496832E-3,1.787871122E-2,-4.744911194E-2
2.997955203E1,-4.689842463E-3,1.033908129E-2,-5.719280243E-2
2.999548221E1,1.604422927E-2,9.454309940E-3,2.871894836E-2
3.001144290E1,1.516917348E-2,3.711527586E-2,1.098556519E-1
3.002746463E1,-1.968452334E-2,2.876573801E-2,2.014160156E-3
3.004345584E1,-2.855244279E-2,1.967042685E-2,-1.177444458E-1
3.005947757E1,-1.596567035E-2,1.339203119E-2,-1.979637146E-2
3.007540774E1,-3.735236824E-2,1.869863272E-2,2.298259735E-2
3.009133792E1,-4.981762171E-2,-6.956875324E-3,-1.162538528E-1
3.010732913E1,-1.462697983E-3,4.404580593E-2,2.374887466E-1
3.012332034E1,2.061426640E-2,3.103721142E-2,7.425498962E-2
3.013934207E1,1.343062520E-2,2.045142651E-2,-1.149015427E-1
3.015527225E1,-1.296573877E-2,-3.471934795E-2,-2.156572342E-1
3.017123294E1,-3.731162846E-2,-2.929055691E-2,-4.862022400E-2
3.018722415E1,-4.136741161E-3,6.624221802E-3,4.883480072E-2
3.020321536E1,1.230332255E-2,5.402749777E-2,1.703977585E-1
3.021920657E1,2.853938937E-2,6.374573708E-2,6.953239441E-2
3.023519778E1,1.080816984E-2,5.165505409E-2,2.149200439E-2
3.025118899E1,-2.420546114E-2,4.737007618E-2,-4.093170166E-2
3.026714969E1,-4.274952412E-2,2.178496122E-2,-2.447509766E-2
3.028314090E1,-4.393658042E-2,1.033872366E-2,-8.138656616E-3
3.029907107E1,-4.204323888E-2,-3.342372179E-2,-8.634567261E-3
3.031506228E1,-2.083693445E-2,-3.385969996E-2,4.405975342E-4
3.033108401E1,-6.555080414E-3,1.879602671E-3,3.105354309E-2
3.034701419E1,-1.025363803E-3,7.145345211E-3,4.954147339E-2
3.036297488E1,-2.394479513E-2,-1.780924201E-2,-9.365081787E-4
3.037899661E1,-3.637732565E-2,-5.072534084E-3,1.062202454E-2
3.039495730E1,-3.897166252E-2,2.039003372E-2,1.736164093E-2
3.041088748E1,-2.907642722E-2,3.894954920E-2,5.041980743E-2
3.042687869E1,5.271002650E-3,4.023322463E-2,6.881713867E-3
3.044286990E1,2.625226974E-3,2.424973249E-2,3.043746948E-2
3.045880008E1,-2.367794514E-4,-5.984336138E-3,-1.064300537E-2
3.047482180E1,-3.836955130E-2,-9.740412235E-3,-4.934310913E-2
3.049081302E1,-2.684979141E-2,-9.448140860E-3,-9.078025818E-3
3.050677371E1,-2.544182539E-2,1.480627060E-2,4.874229431E-3
3.052276492E1,-9.885028005E-3,4.354268312E-2,3.561210632E-2
3.053869510E1,2.822220325E-3,3.079116344E-2,1.611900330E-2
3.055468631E1,1.837924123E-2,-1.036041975E-2,-9.937286377E-4
3.057070804E1,-6.670802832E-3,-1.895272732E-2,8.186340332E-3
3.058669925E1,1.603172719E-2,-7.129490376E-3,1.494693756E-2
3.060269046E1,-6.725713611E-3,-2.645945549E-2,4.805850983E-2
3.061871219E1,-9.869620204E-3,-1.550513506E-2,-9.782791138E-3
3.063467288E1,-1.731662452E-2,-4.840075970E-3,-3.409194946E-2
3.065066409E1,-2.743427455E-2,-5.311131477E-3,-1.531219482E-2
3.066665530E1,-6.583467126E-3,-1.471069455E-2,-6.109237671E-3
3.068261600E1,-3.182823956E-2,-1.981927454E-2,3.135681152E-3
3.069860721E1,-5.030685663E-2,-2.052348852E-2,-1.871204376E-2
3.071456790E1,-2.835808694E-2,-9.127631783E-3,-1.181507111E-2
3.073049808E1,-2.513647079E-2,1.181522012E-2,1.184844971E-2
3.074648929E1,-2.151879668E-2,3.856806457E-2,3.075599670E-2
3.076248050E1,3.864377737E-3,1.883836091E-2,6.594657898E-3
3.077850222E1,3.022342920E-3,-2.878740430E-3,1.584053040E-3
3.079440188E1,-1.209796965E-2,-9.373143315E-3,-5.826950073E-3
3.081036258E1,-2.029135823E-2,-2.669167519E-2,-1.324367523E-2
3.082632327E1,-6.923735142E-3,-9.583666921E-3,-1.587104797E-2
3.084231448E1,-1.303035021E-2,-2.112804353E-2,-2.326869965E-2
3.085824466E1,-9.246870875E-3,-3.505446762E-2,-1.868438721E-2
3.087423587E1,2.646192908E-2,-2.269299328E-2,7.688045502E-2
3.089022708E1,-5.721941590E-3,-5.112759769E-2,7.194995880E-2
3.090621829E1,-1.022171974E-2,-1.605992019E-2,-4.544258118E-2
3.092220950E1,-6.950430572E-2,1.232680678E-2,-5.031204224E-2
3.093820071E1,-4.817898571E-2,-5.262903869E-3,2.382946014E-2
3.095416140E1,-4.467561841E-3,4.203043878E-2,-6.245231628E-2
3.097009158E1,-1.652011275E-2,-3.031577915E-2,-1.344108582E-1
3.098611331E1,-4.681944847E-3,-3.878075257E-2,2.150039673E-1
3.100207400E1,3.518927097E-2,-3.328303993E-2,9.770011902E-2
3.101809573E1,5.302429199E-4,-5.035994947E-2,-1.847171783E-1
3.103405643E1,-3.677950799E-2,-2.564366907E-2,-8.890056610E-2
3.105004764E1,-1.525638998E-2,3.256056458E-2,5.471992493E-2
3.106603885E1,1.876573265E-2,3.589267656E-2,7.140636444E-2
3.108199954E1,1.661588252E-2,1.650512964E-2,4.501819611E-2
3.109799075E1,8.543133736E-3,-1.238216832E-2,5.458164215E-2
3.111392093E1,4.539996386E-3,-1.068072207E-2,2.825832367E-2
3.112988162E1,-2.663990855E-2,-2.419363707E-2,1.153659821E-2
3.114590335E1,-5.565463006E-2,-1.222693548E-2,-4.587459564E-2
3.116189456E1,-4.838086665E-2,-3.648473322E-2,-5.779552460E-2
3.117785525E1,-2.192662656E-2,-1.365809143E-2,5.721378326E-2
3.119384646E1,-1.472064853E-2,-2.913249284E-2,2.372169495E-2
3.120983768E1,-4.850134254E-3,-2.770874649E-2,5.489063263E-2
3.122582889E1,-4.477021098E-2,-2.691530436E-2,2.251625061E-3
3.124182010E1,-3.683902323E-2,-3.024455905E-2,-4.888534546E-3
3.125781131E1,-1.485556364E-2,-1.104679704E-2,1.911926270E-2
3.127377200E1,-1.653379202E-2,1.330574602E-2,3.355121613E-2
3.128976321E1,-5.625709891E-3,2.096097171E-2,4.319095612E-2
3.130575442E1,-1.216652989E-2,2.329055965E-2,1.214122772E-2
3.132174563E1,-2.851814032E-3,-9.665921330E-3,6.491947174E-2
3.133776736E1,-2.450385690E-2,-7.373929024E-2,-1.696481705E-1
3.135372806E1,-2.189038694E-2,-6.005604565E-2,-1.455888748E-1
3.136968875E1,1.902072132E-2,-1.625707746E-2,1.635026932E-1
3.138567996E1,-1.263386011E-2,-2.446295321E-2,1.038484573E-1
3.140167117E1,-9.632974863E-3,-2.749603987E-2,-8.570671082E-3
3.141766238E1,3.263056278E-4,5.697265267E-3,1.129150391E-3
3.143362308E1,-1.938486099E-2,4.973173141E-3,1.328659058E-2
3.144955325E1,1.956522465E-3,7.856518030E-3,8.053779602E-2
3.146557498E1,5.615442991E-3,-1.840901375E-2,4.960060120E-2
3.148153567E1,-2.390760183E-2,-2.128678560E-2,-3.401947021E-2
3.149755740E1,-5.589425564E-3,-1.787450910E-2,-9.365177155E-2
3.151345706E1,-1.631243527E-2,-2.646908164E-2,-2.631282806E-2
3.152944827E1,-3.337009251E-2,-4.921883345E-2,5.783557892E-2
3.154540896E1,-3.210365772E-2,-5.827251077E-2,5.334663391E-2
