"Time (s)","Linear Acceleration x (m/s^2)","Linear Acceleration y (m/s^2)","Linear Acceleration z (m/s^2)"
3.250667000E-2,5.240078270E-2,-3.773462772E-2,-2.384452820E-1
4.837581000E-2,5.576893687E-3,-7.253074646E-2,-2.053117752E-1
6.421443300E-2,-7.219350338E-2,-1.359415054E-2,2.439355850E-1
8.005305600E-2,-4.846145213E-2,3.250247240E-2,5.527200699E-1
9.595271400E-2,-3.853589296E-3,9.112966061E-2,4.530782700E-1
1.118218550E-1,5.393877625E-2,8.777475357E-2,-7.217502594E-2
1.277215130E-1,-9.039491415E-4,2.506053448E-2,-3.901081085E-1
1.436211710E-1,-1.776053011E-2,-2.589303255E-2,-3.963394165E-1
1.595818650E-1,-1.240625978E-2,-6.996589899E-2,-1.672439575E-1
1.754510050E-1,3.450198472E-2,-4.517829418E-2,1.952753067E-1
1.913201460E-1,3.318414092E-2,-5.403673649E-2,3.433427811E-1
2.072198040E-1,1.643364131E-2,-5.562394857E-2,1.656103134E-1
2.230584270E-1,-1.467429101E-2,-1.819467545E-2,-2.055892944E-1
2.390191210E-1,-5.892507732E-2,6.423479319E-2,-1.038150787E-1
2.548577440E-1,1.076832414E-2,9.613335133E-2,3.131866455E-3
2.706963670E-1,1.581002772E-2,5.416685343E-2,2.841682434E-1
2.865960250E-1,5.180296302E-2,8.569240570E-3,-4.313659668E-2
3.024651660E-1,8.877471089E-3,-8.006078005E-2,-2.446889877E-1
3.183953410E-1,-3.732168674E-2,-7.007265091E-2,-1.585397720E-1
3.342644820E-1,-3.557334840E-2,-6.114357710E-2,-3.218650818E-3
3.501641400E-1,-3.133635223E-2,5.703586340E-2,2.551174164E-1
3.660332810E-1,4.055741429E-2,8.664458990E-2,1.426982880E-1
3.819024210E-1,3.601704538E-2,7.937598228E-2,5.445766449E-2
3.978325970E-1,2.785356343E-2,5.169570446E-2,-1.583814621E-1
4.137017380E-1,9.401723742E-3,3.788262606E-2,-7.465362549E-2
4.296013960E-1,-3.089185059E-2,4.908674955E-2,-8.215522766E-2
4.455010540E-1,-1.765318215E-2,1.302921772E-2,3.721141815E-2
4.614617480E-1,-1.795388758E-2,-2.739542723E-2,5.617332458E-2
4.773614060E-1,-2.246281505E-2,-4.863548279E-2,1.306056976E-2
4.932915820E-1,-2.703249454E-3,-3.587061167E-2,6.000518799E-3
5.091912400E-1,-2.910678089E-2,-6.403744221E-3,-1.327486038E-1
5.250908980E-1,4.582107067E-5,-1.107084751E-2,-6.571197510E-2
5.409905560E-1,1.017999649E-2,-3.185987473E-3,-5.873584747E-2
5.569512500E-1,9.837135673E-3,-3.824609518E-2,2.139730453E-1
5.728203900E-1,-3.320527077E-2,2.388834953E-3,8.469200134E-2
5.886895310E-1,-3.775525093E-2,-5.636692047E-3,-9.943389893E-2
6.045891890E-1,-9.455569088E-2,3.293144703E-2,-1.041049957E-1
6.204888470E-1,-4.563727975E-2,3.520905972E-2,-2.431507111E-1
6.363885050E-1,7.396306843E-2,6.519371271E-2,2.662315369E-1
6.522576460E-1,8.843757957E-2,1.989549398E-2,1.842861176E-1
6.680962690E-1,-1.808500290E-2,-2.070456743E-2,-1.776294708E-1
6.839959270E-1,-5.336360633E-2,-3.429603577E-2,-3.960638046E-1
6.998650680E-1,-6.080016494E-3,-1.934927702E-2,-2.557954788E-1
7.157647260E-1,-3.774076700E-3,1.679378748E-2,9.730625153E-2
7.316338670E-1,-1.537761092E-2,3.028309345E-2,4.243316650E-1
7.475030070E-1,2.287328243E-4,4.072797298E-2,4.048547745E-1
7.634026660E-1,-6.450012326E-3,6.028425694E-2,2.684593201E-2
7.793023240E-1,-3.574736416E-2,5.494046211E-2,-2.816867828E-1
7.952630170E-1,-3.453157842E-2,7.399994135E-2,-2.746667862E-1
8.111626750E-1,-2.412413061E-2,1.338797808E-2,-1.412992477E-1
8.270928510E-1,-2.038499713E-2,-4.804944992E-2,-7.771682739E-2
8.430535450E-1,1.041442156E-3,-6.864380836E-2,-2.259254456E-3
8.589532030E-1,8.134394884E-3,-5.156320333E-2,9.721660614E-2
8.748223430E-1,-2.584518492E-2,-4.441201687E-3,1.466302872E-1
8.906914840E-1,-3.014610708E-2,4.041415453E-2,9.337425232E-2
9.066216600E-1,-1.186320186E-2,3.669163585E-2,4.988098145E-2
9.225518360E-1,-1.239302754E-2,2.485901117E-2,2.081394196E-2
9.384514940E-1,9.455084801E-4,1.231503487E-2,-1.543865204E-1
9.543206340E-1,8.415117860E-3,-2.452290058E-2,-2.172822952E-1
9.702202930E-1,-7.363960147E-3,-2.416256070E-2,-1.559686661E-1
9.861504680E-1,5.702048540E-3,-6.882339716E-3,2.977275848E-2
1.001989091E0,1.718789339E-2,1.553148031E-3,1.821279526E-1
1.017919267E0,1.339364052E-2,9.296715260E-3,1.695680618E-1
1.033849443E0,2.659867704E-2,1.086151600E-2,-5.111694336E-2
1.049657548E0,-7.161483169E-3,2.333551645E-2,-2.003021240E-1
1.065526689E0,1.139090955E-2,4.884389043E-2,-9.767913818E-2
1.081395830E0,1.667843759E-2,5.927228928E-2,6.655311584E-2
1.097295488E0,4.521459341E-3,-4.451572895E-3,1.141700745E-1
1.113225664E0,-2.365802228E-2,-4.370549321E-2,3.474712372E-2
1.129125322E0,-1.550014317E-2,-7.519933581E-2,-4.699039459E-2
1.144994462E0,-1.677566767E-2,-6.800261140E-2,-1.143579483E-1
1.160924638E0,-1.202076674E-2,-4.224891961E-2,-1.456680298E-1
1.176824296E0,-3.846628964E-2,-2.091808617E-2,-1.271867752E-1
1.192723955E0,-8.199051023E-3,-2.061262727E-3,-2.949714661E-2
1.208562578E0,3.090126812E-2,-1.384805143E-2,1.137342453E-1
1.224462236E0,1.007291675E-2,-2.211952209E-2,1.828536987E-1
1.240300859E0,-4.537537694E-2,-2.637384832E-2,-4.000854492E-2
1.256139482E0,-4.010972381E-2,-6.519839168E-3,-7.370376587E-2
1.272039140E0,-5.294123292E-2,-7.591351867E-3,-2.319641113E-1
1.287877763E0,4.565714300E-2,-1.137401164E-2,-2.466440201E-1
1.303777421E0,9.354087710E-2,-1.152500510E-2,1.720104218E-1
1.319616045E0,3.156496584E-2,1.037716866E-3,2.770919800E-1
1.335454668E0,-7.987822592E-2,-3.209816664E-2,-1.997089386E-2
1.351384843E0,5.185395479E-3,-3.777428344E-2,-3.241481781E-1
1.367223466E0,2.609470487E-2,-2.048863843E-2,-2.859411240E-1
1.383123125E0,-3.927785158E-2,-2.173047513E-3,7.787990570E-2
1.398961748E0,-4.726594687E-2,2.692787349E-2,4.034042358E-1
1.414800371E0,-3.158983588E-2,1.804438047E-2,3.507118225E-1
1.430730546E0,-1.962997019E-2,3.057719581E-2,3.224658966E-2
1.446630205E0,-1.940093935E-2,1.623018086E-2,-2.383308411E-1
1.462529863E0,-4.004850984E-3,-1.978806034E-2,-3.556718826E-1
1.478429521E0,-2.901597321E-2,-4.914777353E-2,-1.449899673E-1
1.494268144E0,1.815457642E-2,-6.991741061E-2,9.925651550E-2
1.510198320E0,2.255865932E-2,-6.738723814E-2,1.615705490E-1
1.526067461E0,3.782975674E-2,-8.045011014E-2,1.281270981E-1
1.541997636E0,-2.296680212E-2,-6.489790976E-2,-3.461933136E-2
1.557866777E0,-5.126291513E-2,-2.355688810E-2,-1.064004898E-1
1.573796953E0,-5.740642548E-3,4.558041692E-4,-1.135263443E-1
1.589635576E0,-2.547262609E-2,-5.348727107E-3,1.068048477E-1
1.605565752E0,3.580921888E-2,-3.446269035E-2,1.543998718E-3
1.621465410E0,1.345869899E-2,-4.759314656E-2,-1.827249527E-1
1.637395586E0,-6.343007088E-2,-6.227717549E-2,-8.446788788E-2
1.653234209E0,-5.484129488E-2,-8.107379079E-3,2.099323273E-2
1.669164384E0,2.524808049E-3,2.164536715E-2,1.312618256E-1
1.685033525E0,7.069870830E-3,8.433222771E-3,9.306621552E-2
1.700933183E0,-1.061819494E-2,1.605370641E-2,-7.682323456E-2
1.716802324E0,-4.444330931E-3,2.616412938E-2,-1.604776382E-1
1.732671464E0,5.079045892E-3,2.399964631E-2,-5.010032654E-2
1.748632158E0,-3.057670593E-2,-8.243471384E-3,6.750774384E-2
1.764470781E0,-3.520010412E-2,-4.206660390E-2,-8.825302124E-3
1.780339921E0,-1.657956839E-2,-4.606898129E-2,-7.081031799E-2
1.796270097E0,-1.256258786E-2,-5.916595459E-2,-5.376338959E-2
1.812200273E0,-3.223250806E-2,-7.001212239E-2,6.398200989E-3
1.828099931E0,-1.600083709E-2,-6.073594093E-2,4.020309448E-2
1.844030107E0,-2.583861351E-4,-5.099359155E-2,6.926536560E-3
1.859990800E0,-8.345589042E-3,-3.026172519E-2,-7.213592529E-3
1.875920976E0,-1.732991636E-2,-2.097079158E-2,-3.327941895E-2
1.891851152E0,-2.061587572E-2,6.135523319E-3,-2.577400208E-2
1.907781328E0,-1.940608025E-2,-2.584266663E-2,-9.963989258E-2
1.923650468E0,-8.811414242E-3,-1.791420579E-2,-1.447496414E-1
1.939550127E0,-1.868033409E-2,-6.020480394E-2,-8.682823181E-2
1.955449785E0,-1.040549576E-2,-2.712276578E-2,8.849334717E-2
1.971318925E0,-2.428823709E-2,1.108103991E-2,2.542152405E-1
1.987249101E0,-1.685830951E-2,-4.420429468E-3,4.144859314E-2
2.003087724E0,-6.054028869E-3,-6.860971451E-3,-1.953220367E-1
2.018987382E0,-3.865151107E-2,-1.300597191E-2,-1.709871292E-1
2.034826005E0,-2.963203192E-2,-6.378561258E-3,-2.756872177E-1
2.050695146E0,1.078123748E-1,-2.025964856E-2,2.985000610E-3
2.066655839E0,5.001472682E-2,-5.171892047E-2,3.702373505E-1
2.082586015E0,-7.082706690E-2,-8.932074904E-2,1.407871246E-1
2.098546709E0,-6.678551435E-4,-8.644673228E-2,-3.570127487E-1
2.114446367E0,3.184531629E-2,-4.675000906E-2,-3.660488129E-1
2.130315507E0,-5.764801800E-2,-2.310356498E-2,-5.938529968E-3
2.146245683E0,-3.678062558E-2,2.070152760E-2,3.972024918E-1
2.162206377E0,-1.487667859E-2,2.316546440E-2,4.071311951E-1
2.178167070E0,-2.538120747E-2,-1.815414429E-2,-4.557514191E-2
2.194066728E0,-3.460881114E-2,-1.864254475E-2,-2.588357925E-1
2.210027421E0,-2.037161589E-2,-2.976900339E-2,-2.634563446E-1
2.225866045E0,-2.451899648E-2,-5.038183928E-2,-4.501914978E-2
2.241796220E0,-2.716779709E-3,-6.853485107E-2,3.570556641E-3
2.257695879E0,-2.004334331E-2,-7.226794958E-2,1.525945663E-1
2.273565019E0,-1.370464265E-2,-6.936740875E-2,5.950641632E-2
2.289464677E0,-2.654051036E-2,-6.778061390E-2,3.085517883E-2
2.305333818E0,-3.881733865E-2,-2.714800835E-2,-1.703643799E-2
2.321263994E0,-9.061679244E-3,2.194923162E-2,-7.202148438E-2
2.337133134E0,3.664642572E-3,3.406107426E-2,-1.267967224E-1
2.353032793E0,3.219678998E-3,-1.213067770E-2,-1.855182648E-2
2.368901933E0,3.688648343E-2,-4.233896732E-2,-1.903162003E-1
2.384801591E0,-2.704088390E-2,-6.702470779E-2,-6.259727478E-2
2.400640214E0,-4.303964972E-2,-5.467343330E-2,1.253795624E-2
2.416539873E0,-2.740457654E-3,-1.370918751E-2,8.512878418E-2
2.432409013E0,3.594115376E-3,3.942668438E-3,1.885833740E-1
2.448278154E0,-1.649701595E-2,1.403927803E-2,2.116489410E-2
2.464147295E0,-5.940251052E-3,4.036307335E-3,-2.085685730E-1
2.480046953E0,-4.800856113E-4,-1.534342766E-3,-1.890201569E-1
2.495946611E0,1.281876862E-2,-1.111668348E-2,4.144001007E-2
2.511876787E0,-3.520210087E-2,-5.659365654E-2,1.736001968E-1
2.527776445E0,-3.250866383E-2,-6.941765547E-2,1.162471771E-1
2.543676103E0,-2.672849596E-2,-6.159305573E-2,-9.933662415E-2
2.559545244E0,7.335804403E-3,-4.142731428E-2,-1.351747513E-1
2.575383867E0,9.456090629E-3,-2.980262041E-2,-1.756381989E-2
2.591314043E0,-7.566317916E-3,-1.718717813E-2,6.420612335E-2
2.607152666E0,-3.268255293E-2,-1.516032219E-2,-1.209163666E-2
2.623082841E0,-2.627067268E-2,2.267003059E-3,-1.290092468E-1
2.638921464E0,-1.540601254E-3,3.736793995E-3,-1.882524490E-1
2.654821123E0,1.662676036E-2,-2.246481180E-2,1.131057739E-2
2.670659746E0,1.692453027E-2,-6.014633179E-2,1.724300385E-1
2.686528886E0,-3.992500901E-2,-8.115106821E-2,4.350852966E-2
2.702489580E0,-3.881074488E-3,-2.288025618E-2,-1.190624237E-1
2.718358720E0,-7.613800466E-3,1.298040152E-2,-7.560443878E-2
2.734258379E0,1.646777242E-2,9.233236313E-3,-2.968120575E-2
2.750127519E0,-2.608725429E-2,-1.207900047E-2,-4.369449615E-2
2.766088212E0,-1.178617775E-2,-3.704094887E-2,-2.907562256E-2
2.781957353E0,5.136178434E-2,-3.690332174E-2,7.165431976E-2
2.797826494E0,-2.624028921E-2,-6.168168783E-2,1.457996368E-1
2.813756670E0,-4.336500913E-2,-5.987828970E-2,9.271907806E-2
2.829595293E0,-3.557898104E-2,-2.395451069E-3,-1.208925247E-1
2.845433916E0,-1.048660204E-1,6.719350815E-3,-2.001113892E-1
2.861364091E0,-4.848395288E-2,4.410469532E-2,-3.458824158E-1
2.877202714E0,1.091306806E-1,1.141524315E-2,-1.198740005E-1
2.893102373E0,3.283420205E-2,-5.517131090E-2,6.041269302E-1
2.908940996E0,-2.912657708E-2,-9.837335348E-2,2.567234039E-1
2.924840654E0,-8.667507023E-2,-5.955898762E-2,-5.245304108E-1
2.940770830E0,4.152310640E-2,6.760597229E-3,-6.654653549E-1
2.956670488E0,1.376871020E-2,-7.187724113E-4,1.450786591E-1
2.972539629E0,-4.113215208E-2,-3.078973293E-2,6.558780670E-1
2.988439287E0,-4.647190124E-2,-2.734738588E-2,4.444866180E-1
3.004338945E0,-2.573820204E-2,4.161876440E-2,-2.080736160E-1
3.020177568E0,1.512920111E-2,8.181822300E-2,-5.416297913E-1
3.036107744E0,-1.218318194E-2,3.481239080E-2,-2.706670761E-1
3.052007402E0,-8.930891752E-3,-4.885113239E-2,1.827449799E-1
3.067907060E0,-2.984581888E-2,-1.379122734E-1,3.197164536E-1
3.083806718E0,-4.067778587E-3,-1.266263723E-1,5.371475220E-2
3.099675859E0,4.018992186E-3,-4.592382908E-2,-1.406297684E-1
3.115575517E0,-1.318965852E-2,2.806484699E-2,-1.360216141E-1
3.131475175E0,-2.740070224E-3,5.816280842E-3,-3.293228149E-2
3.147374834E0,-2.994060516E-3,1.662850380E-3,2.715301514E-2
3.163305009E0,2.311013639E-2,-2.455878258E-2,5.607509613E-2
3.179143632E0,1.282049716E-2,-3.443068266E-2,9.195709229E-2
3.195165361E0,7.903650403E-3,3.984034061E-3,-1.404590607E-1
3.211065019E0,1.142883301E-2,-2.140706778E-2,-3.295145035E-1
3.226934160E0,-2.509632707E-2,-4.065436125E-2,7.567405701E-2
3.242803300E0,-1.684095711E-2,-3.971034288E-2,1.383838654E-1
3.258672441E0,-1.885252446E-2,-1.254290342E-2,1.959133148E-1
3.274511064E0,-2.119894326E-2,3.719657660E-2,-6.289005280E-2
3.290410722E0,-5.195163190E-3,5.750817060E-2,-1.467924118E-1
3.306279863E0,1.962535828E-2,4.364651442E-2,-1.082744598E-1
3.322118486E0,6.031833589E-3,-8.740425110E-4,5.736160278E-2
3.338048662E0,7.930763066E-3,-4.440128803E-2,1.007976532E-1
3.353948320E0,-2.749467641E-2,-8.858728409E-2,-3.556442261E-2
3.369847978E0,-2.448362112E-2,-6.485521793E-2,-4.754543304E-2
3.385747636E0,-2.463822812E-2,-3.469532728E-2,1.702022552E-2
3.401616777E0,-1.806948334E-2,-1.290792227E-2,4.078483582E-2
3.417577470E0,8.158214390E-3,4.799962044E-4,1.418018341E-2
3.433446611E0,1.310001314E-2,-2.719801664E-2,-5.315017700E-2
3.449346269E0,-3.387100995E-3,-2.728605270E-2,-4.615879059E-2
3.465184892E0,4.242390394E-3,-1.347887516E-2,-4.619789124E-2
3.481054033E0,-2.629225701E-2,-1.006126404E-2,-8.202457428E-2
3.496984209E0,-1.665163785E-2,-4.128217697E-4,-4.281997681E-4
3.512822832E0,9.040676057E-3,-8.160471916E-3,1.026611328E-1
3.528691972E0,-3.618188202E-3,-2.908027172E-2,5.463027954E-2
3.544561113E0,-8.417449892E-3,-1.477503777E-2,-8.163452148E-4
3.560552324E0,-1.271926612E-2,-2.444344759E-2,-7.062244415E-2
3.576421464E0,-1.246938109E-2,1.110076904E-3,-6.607723236E-2
3.592290605E0,-5.557596684E-3,3.795683384E-3,-3.993988037E-3
3.608159746E0,-2.776895463E-2,-3.510522842E-2,5.562496185E-2
3.624059404E0,-3.548917919E-2,-3.019648790E-2,1.456069946E-2
3.639989580E0,-1.149215549E-2,-1.912212372E-2,4.285907745E-2
3.655950273E0,-1.255830377E-2,-6.230831146E-3,-4.139614105E-2
3.671849931E0,-8.687794209E-3,1.818633080E-2,-8.479785919E-2
3.687719072E0,-6.615988910E-3,1.346468925E-4,-1.232042313E-1
3.703618730E0,5.192702264E-2,-1.554310322E-2,-3.455257416E-2
3.719518388E0,1.341157407E-2,-3.183442354E-2,1.067390442E-1
3.735479082E0,-1.645701379E-2,-3.311592340E-2,2.309770584E-1
3.751409257E0,-2.695994079E-2,-2.414327860E-2,2.912998199E-2
3.767339433E0,-1.470112056E-2,1.612192392E-2,-2.229862213E-1
3.783239091E0,-7.594253868E-2,8.462786674E-3,-2.447566986E-1
3.799169267E0,-4.428778589E-2,1.495063305E-2,-3.616228104E-1
3.815007890E0,1.021379307E-1,-1.113820076E-2,1.542053223E-1
3.830938066E0,1.125830412E-2,-9.001803398E-2,6.431665421E-1
3.846807207E0,-3.752118349E-2,-8.876067400E-2,1.323471069E-1
3.862737382E0,-1.921129227E-2,-3.795874119E-2,-6.420221329E-1
3.878637041E0,2.975094318E-2,8.727133274E-3,-5.150079727E-1
3.894597734E0,-1.057162881E-4,2.833151817E-2,3.286952972E-1
3.910497392E0,-1.938295364E-2,1.423132420E-2,6.712608337E-1
3.926427568E0,1.689510047E-2,5.295515060E-3,1.937894821E-1
3.942266191E0,2.084267139E-2,5.300694704E-2,-3.127775192E-1
3.958104814E0,-3.456387669E-2,5.906176567E-2,-3.542308807E-1
3.974034990E0,-3.197647631E-2,1.530140638E-2,-7.176017761E-2
3.989873613E0,-2.574625611E-2,-5.103385448E-2,1.678905487E-1
4.005773271E0,1.652362943E-2,-9.691268206E-2,1.559085846E-1
4.021611894E0,-4.299119115E-3,-9.200912714E-2,9.545326233E-3
4.037481035E0,-6.775520742E-3,-3.155934811E-2,-5.794620514E-2
4.053319658E0,-8.761696517E-3,-1.703405380E-2,-8.142471313E-3
4.069188798E0,-1.516807079E-2,-7.812380791E-3,1.290607452E-2
4.085057939E0,-2.170369029E-3,-1.711875200E-2,-4.021644592E-2
4.100896562E0,3.248438239E-3,-9.565949440E-4,3.365516663E-2
4.116735185E0,1.475566626E-2,-6.513655186E-3,2.610397339E-2
4.132665361E0,2.563682199E-2,-1.492118835E-2,-4.612350464E-2
4.148534502E0,2.381394804E-2,-1.059931517E-2,-4.884910583E-2
4.164434160E0,-2.453631163E-2,-3.389745951E-2,-2.993965149E-2
4.180272783E0,-4.490498453E-2,4.279792309E-3,4.637718201E-2
4.196111406E0,-1.097328961E-2,3.951609135E-2,-9.028434753E-3
4.212011064E0,3.793694079E-3,5.087268353E-2,-2.133178711E-2
4.227849687E0,3.768503666E-3,4.082322121E-2,-2.404975891E-2
4.243688310E0,1.933777332E-2,-2.295273542E-2,-4.345703125E-2
4.259587968E0,6.216175854E-3,-1.374089718E-2,5.691909790E-2
4.275518144E0,-3.717292100E-2,-1.881176233E-2,3.520679474E-2
4.291356767E0,-3.488761187E-2,-2.543884516E-2,2.297878265E-2
4.307225908E0,-1.371674240E-3,-9.636819363E-3,-1.088237762E-2
4.323095048E0,4.141211510E-3,-3.497159481E-2,-6.451606750E-3
4.339055742E0,-1.650008559E-2,-4.163789749E-2,5.138397217E-3
4.354924882E0,-1.774647087E-2,-3.387421370E-2,-9.594917297E-3
4.370763505E0,-3.336967528E-2,-3.862679005E-3,-1.231384277E-2
4.386632646E0,3.352418542E-3,9.366571903E-3,-1.982212067E-2
4.402562822E0,-2.736001462E-2,1.229584217E-3,-3.929233551E-2
4.418462480E0,-3.193110973E-2,-9.188234806E-3,-3.002452850E-2
4.434423173E0,3.829516470E-3,-4.894435406E-3,-2.552795410E-2
4.450292314E0,-4.342089593E-2,-3.099477291E-2,-1.431102753E-1
4.466222490E0,-4.202105105E-3,-2.784854174E-2,-3.071403503E-2
4.482122148E0,2.608008683E-3,3.515082598E-2,1.010046005E-1
4.498113359E0,-1.725614071E-2,8.016893268E-2,1.033916473E-1
4.514043535E0,-1.281520724E-2,3.778326511E-2,2.655410767E-2
4.529943193E0,-1.445509493E-3,-4.764097929E-2,2.141761780E-2
4.545842851E0,-6.626620889E-4,-5.043214560E-2,4.736518860E-2
4.561681474E0,1.176625490E-3,-2.087056637E-2,4.453945160E-2
4.577672685E0,-1.848686486E-2,-1.421153545E-2,2.010726929E-2
4.593572343E0,-4.783302546E-3,2.765998244E-2,-3.547477722E-2
4.609441484E0,-6.004109979E-3,1.983883977E-2,-7.426357269E-2
4.625310625E0,-2.699754387E-2,5.858689547E-3,-3.399372101E-2
4.641179765E0,-1.703727245E-2,-2.689969540E-2,2.306175232E-2
4.657048906E0,-1.741625369E-3,-2.919867635E-2,2.982234955E-2
4.672948564E0,-1.028966904E-2,-1.036468148E-2,1.023864746E-2
4.688787187E0,-2.817224711E-2,-1.212149858E-3,5.029678345E-3
4.704625810E0,-1.458366215E-2,2.944344282E-2,-1.692867279E-2
4.720586504E0,-7.800839841E-3,1.004138589E-2,-8.195495605E-2
4.736455644E0,-2.860139310E-2,9.100824594E-3,-1.014299393E-1
4.752385820E0,-5.476482213E-3,4.311800003E-4,-2.986431122E-2
4.768224443E0,1.437410712E-3,8.085191250E-3,1.087312698E-1
4.784124101E0,-1.458832622E-2,2.121031284E-4,2.448158264E-1
4.799962724E0,-5.005715787E-2,1.762494445E-2,5.268955231E-2
4.815862382E0,-3.363342583E-2,3.106188774E-2,-1.322937012E-1
4.831762041E0,-6.411872804E-2,3.354942799E-2,-1.974411011E-1
4.847692216E0,-3.951088339E-2,7.115870714E-3,-3.581104279E-1
4.863561357E0,9.318764508E-2,-1.137527823E-2,1.997718811E-1
4.879461015E0,6.678800285E-2,-3.724384308E-2,4.080343246E-1
4.895360673E0,-4.411756992E-2,-3.073349595E-2,3.170871735E-2
4.908300127E0,-3.983139247E-2,-3.479370475E-2,-4.307470322E-1
4.924169267E0,2.055434883E-2,-4.029273987E-5,-5.625972748E-1
4.940038408E0,2.075701952E-3,3.606280684E-2,2.231597900E-4
4.955907548E0,-2.857867628E-2,3.153428435E-2,5.701580048E-1
4.971776689E0,-3.929565847E-2,6.799262762E-2,6.201171875E-1
4.987676347E0,-2.499689907E-2,7.250669599E-2,8.308792114E-2
5.003545488E0,-1.360947639E-2,4.708990455E-2,-2.982797623E-1
5.019414629E0,-1.008883864E-2,2.306438982E-2,-3.825187683E-1
5.035314287E0,-2.978324890E-2,-3.216788173E-3,-1.671466827E-1
5.051213945E0,-6.024479866E-3,-3.811678290E-2,9.130001068E-2
5.067113603E0,-9.788960218E-3,-4.418484867E-2,1.869611740E-1
5.082982744E0,-2.328187972E-2,-3.485038877E-2,6.942653656E-2
5.098851884E0,1.070834696E-3,-1.190733910E-2,-4.096889496E-2
5.114751543E0,-2.025651187E-2,1.172928512E-2,-7.232475281E-2
5.130620683E0,-9.457178414E-3,2.859669924E-2,-4.853916168E-2
5.146459306E0,2.201959491E-3,2.516945451E-2,3.514385223E-2
5.162358964E0,-1.399278641E-2,2.605310827E-2,4.459095001E-2
5.178167070E0,-8.531156182E-2,4.894018173E-3,-1.302242279E-2
5.194097246E0,2.839644998E-2,5.847141147E-3,-1.544055939E-1
5.209996904E0,1.631703973E-2,2.239786834E-2,-1.257429123E-1
5.225896562E0,4.930451512E-3,-6.789021194E-3,-4.198169708E-2
5.241796220E0,-3.067536652E-2,1.154725999E-2,8.247661591E-2
5.257695879E0,-5.999842286E-2,3.911944851E-2,6.804370880E-2
5.273565019E0,5.523271859E-3,5.940105021E-2,5.598831177E-2
5.289464677E0,2.580295503E-2,6.863725185E-2,-5.901050568E-2
5.305394853E0,2.777941525E-3,4.279813915E-2,-3.034114838E-2
5.321263994E0,2.397567034E-3,2.248043381E-2,3.187656403E-2
5.337163652E0,-1.912474632E-3,8.800418116E-3,-1.653671265E-3
5.353093828E0,-2.311114222E-2,-5.403128453E-3,3.136634827E-3
5.368962968E0,-2.786547691E-2,1.026058104E-2,-3.756237030E-2
5.384862627E0,-2.802260220E-2,-4.973446950E-3,-1.837825775E-2
5.400701250E0,-3.001753241E-2,1.066176966E-2,-1.355075836E-2
5.416570390E0,1.106005907E-2,1.973279193E-2,-1.352405548E-2
5.432470048E0,6.627522409E-3,1.388144866E-2,-3.259468079E-2
5.448339189E0,-1.536349952E-2,1.405704021E-2,-4.211616516E-2
5.464177812E0,-3.522604704E-2,1.237349957E-2,-2.530193329E-2
5.480107988E0,3.408329934E-2,2.752450854E-2,5.894660950E-3
5.495946611E0,1.749207824E-2,2.967361361E-2,-1.072597504E-2
5.511846269E0,-2.300857753E-2,1.025130600E-2,-1.093864441E-3
5.527745927E0,-2.012243122E-2,2.118756622E-2,1.426696777E-3
5.543554033E0,-2.003495395E-2,1.519407332E-2,-1.280593872E-2
5.559484209E0,4.514673352E-2,3.772377968E-2,1.713752747E-3
5.575353349E0,-4.469662905E-3,2.362531424E-2,1.625728607E-2
5.591253007E0,-3.570999205E-2,3.282693028E-2,-5.097389221E-3
5.607122148E0,-3.852560371E-2,3.255259991E-2,-3.601741791E-2
5.623052324E0,-3.236089647E-2,4.202333093E-2,-4.538536072E-2
5.638951982E0,-9.403035045E-3,2.600081265E-2,-9.265899658E-3
5.654821123E0,2.351503819E-2,3.869819641E-2,4.602527618E-2
5.670751298E0,9.290397167E-3,2.873325348E-2,3.911495209E-2
5.686650957E0,-3.608569503E-2,3.425031900E-2,-8.452415466E-3
5.702581132E0,-2.403366566E-2,3.779098392E-3,-2.966308594E-2
5.718511308E0,-4.347467422E-2,1.478144526E-2,-7.003211975E-2
5.734410966E0,-2.478048950E-2,3.889715672E-2,-2.901458740E-2
5.750280107E0,2.755370736E-2,3.496763110E-2,2.875614166E-2
5.766149248E0,3.996267915E-3,2.314794064E-2,7.220554352E-2
5.782048906E0,-1.216410846E-2,2.463144064E-2,-2.076530457E-2
5.797918046E0,-2.926076949E-2,1.055201888E-2,-1.999588013E-1
5.813787187E0,-1.107488573E-2,4.699707031E-3,-1.925163269E-1
5.829747880E0,-1.661901921E-2,1.660829782E-2,8.752822876E-3
5.845617021E0,-1.005012542E-2,4.842022061E-2,2.483873367E-1
5.861547197E0,-4.545442015E-2,5.756855011E-2,1.650333405E-1
5.877385820E0,-3.012686968E-3,5.035680532E-2,-7.374858856E-2
5.893377031E0,-3.137066960E-2,2.064248919E-2,-1.976528168E-1
5.909276689E0,-4.324792325E-2,3.293934464E-2,-2.954473495E-1
5.925145830E0,3.802068532E-2,1.677751541E-2,7.575416565E-2
5.941014970E0,9.895003587E-2,6.672990322E-2,4.589195251E-1
5.956945146E0,1.274630427E-3,5.348390341E-2,1.001844406E-1
5.972844804E0,-2.672081441E-2,2.598673105E-2,-4.595212936E-1
5.988713945E0,3.369263560E-2,-8.025825024E-3,-6.293783188E-1
6.004674638E0,-3.279583901E-2,-4.232424498E-2,-2.036094666E-1
6.020604814E0,-4.818364978E-2,-4.607856274E-3,4.016075134E-1
6.036443437E0,1.195313036E-2,4.740685225E-2,6.889162064E-1
6.052373613E0,2.935130149E-2,1.211823225E-1,3.592500687E-1
6.068273271E0,6.944663823E-3,1.256522834E-1,-6.811046600E-2
6.084172929E0,-3.061163425E-2,9.679585695E-2,-3.039941788E-1
6.100072587E0,-2.369354665E-2,7.034555078E-2,-2.769517899E-1
6.115972246E0,-2.350812405E-2,1.007634401E-2,-1.497964859E-1
6.131902421E0,-1.621709764E-2,-1.187360287E-2,1.303100586E-2
6.147832597E0,-7.097117603E-3,-1.552990079E-2,7.533836365E-2
6.163701738E0,-2.905976027E-2,4.179537296E-3,7.554817200E-2
6.179601396E0,-2.550481260E-2,2.970480919E-2,-3.406429291E-2
6.195470537E0,-5.961677432E-2,5.227792263E-2,3.555774689E-2
6.211370195E0,-5.774439126E-2,6.868654490E-2,3.594970703E-2
6.227239336E0,-4.773311317E-3,6.392580271E-2,2.675914764E-2
6.243138994E0,7.421001792E-3,1.869648695E-2,4.868412018E-2
6.259038652E0,1.339583844E-2,2.151447535E-2,-1.711988449E-1
6.274968828E0,9.025275707E-3,1.234054565E-2,-1.398258209E-1
6.290807451E0,-2.699266374E-2,5.853891373E-3,-4.875278473E-2
6.306737627E0,-1.249878854E-2,2.181202173E-2,4.466724396E-2
6.322667802E0,-5.334362388E-3,4.340618849E-2,5.437564850E-2
6.338597978E0,-1.810267568E-2,6.038552523E-2,4.265499115E-2
6.354436601E0,-6.459444761E-3,7.142245770E-2,1.424503326E-2
6.370336259E0,3.919537365E-2,8.254331350E-2,1.457118988E-2
6.386205400E0,3.933010995E-2,6.573259830E-2,4.892349243E-4
6.402135576E0,2.519766241E-2,6.823837757E-2,-3.754138947E-2
6.418035234E0,3.806948662E-4,2.836006880E-2,-4.210567474E-2
6.433965410E0,-2.244042605E-2,2.064794302E-2,-3.476333618E-2
6.449834550E0,-1.699902117E-3,-5.707561970E-3,-1.068592072E-2
6.465734209E0,6.675481796E-3,1.623868942E-3,-2.971744537E-2
6.481603349E0,-1.673631370E-3,6.290733814E-3,-2.718544006E-2
6.497472490E0,1.208213717E-2,1.124620438E-2,-3.115653992E-3
6.513372148E0,2.048358321E-3,6.214797497E-3,1.140499115E-2
6.529210771E0,-2.940878272E-2,-1.597225666E-3,-1.714420319E-2
6.545110429E0,2.100813389E-2,1.937651634E-2,-4.090309143E-2
6.560979570E0,-1.988796890E-2,1.681721210E-2,-3.835296631E-2
6.576879228E0,-3.721040487E-2,3.604930639E-2,-1.427364349E-2
6.592809404E0,-3.796695918E-2,2.426630259E-2,2.416229248E-2
6.608678545E0,-2.868480235E-2,4.799640179E-2,7.560729980E-3
6.624608720E0,7.657259703E-3,6.169819832E-2,2.968788147E-3
6.640477861E0,-2.101571858E-2,5.877387524E-2,-1.600074768E-2
6.656408037E0,-1.718790829E-2,2.713823318E-2,1.050949097E-2
6.672307695E0,-1.099494845E-2,4.350203276E-2,-1.566028595E-2
6.688237871E0,-1.888236403E-2,2.878260612E-2,-1.549243927E-2
6.704137529E0,1.649668813E-2,3.123074770E-2,-8.164405823E-3
6.720067705E0,-1.011071354E-2,1.705491543E-2,-1.281452179E-2
6.736058916E0,-1.244275272E-2,1.975220442E-2,-2.943897247E-2
6.751897539E0,-2.178306878E-2,1.553267241E-2,-5.325984955E-2
6.767827714E0,-2.204573154E-2,2.067434788E-2,3.545475006E-2
6.783757890E0,6.128601730E-3,1.334953308E-2,3.800868988E-2
6.799596513E0,8.076027036E-3,2.374589443E-2,3.826427460E-2
6.815435136E0,1.540573686E-2,2.629810572E-2,-3.565025330E-2
6.831334795E0,3.226919472E-2,3.438186646E-2,-1.072177887E-1
6.847203935E0,-8.673414588E-3,2.609509230E-2,-1.382713318E-1
6.863042558E0,-3.005496413E-2,1.069748402E-2,-4.993343353E-2
6.878942216E0,8.834898472E-4,3.585314751E-2,1.702508926E-1
6.894841875E0,-9.189106524E-3,3.949797153E-2,1.775045395E-1
6.910741533E0,-3.296972066E-2,4.398936033E-2,-7.354736328E-2
6.926610673E0,-8.273415267E-3,8.240759373E-3,-2.120933533E-1
6.942510332E0,-2.339607477E-2,-3.512442112E-3,-1.546554565E-1
6.958440507E0,-4.164371639E-2,1.342982054E-2,-1.358251572E-1
6.974279130E0,5.523306504E-2,4.449909925E-2,3.018522263E-1
6.990239824E0,5.403539166E-2,3.335613012E-2,3.448581696E-1
7.006108964E0,-3.229417652E-2,2.506643534E-2,-1.072807312E-1
7.022008623E0,-9.759202600E-3,-7.809281349E-3,-4.589424133E-1
7.037847246E0,-3.540025651E-2,-6.404340267E-3,-3.779459000E-1
7.053777421E0,-3.978934139E-2,3.370583057E-2,4.490661621E-2
7.069616045E0,-1.047563553E-2,5.375826359E-2,4.295310974E-1
7.085485185E0,-8.689761162E-4,8.664840460E-2,4.318132401E-1
7.101354326E0,-1.416569203E-2,6.106454134E-2,8.283233643E-2
7.117253984E0,-1.591302454E-2,5.203473568E-2,-2.875232697E-1
7.133123125E0,-4.282659292E-2,3.131496906E-2,-3.136034012E-1
7.149114336E0,-1.031476259E-2,6.946325302E-3,-1.247577667E-1
7.165013994E0,-1.442790031E-3,-2.559661865E-2,1.237030029E-1
7.180883134E0,-1.851019263E-2,-3.865695000E-2,9.457969666E-2
7.196782793E0,-3.051441908E-2,-9.535253048E-3,7.045936584E-2
7.212712968E0,-1.381665468E-3,4.969376326E-2,-5.175399780E-2
7.228551591E0,-5.488768220E-3,5.618774891E-2,-1.046791077E-1
7.244451250E0,-3.691367060E-2,5.674159527E-2,9.755134583E-3
7.260381425E0,-1.795618981E-2,2.793323994E-2,3.579807281E-2
7.276311601E0,-4.591494799E-3,2.218168974E-2,8.749961853E-2
7.292180742E0,2.848990262E-3,1.912647486E-2,2.232551575E-2
7.308049882E0,3.953322768E-3,1.850491762E-2,-1.050825119E-1
7.323919023E0,1.688443124E-2,1.784503460E-2,-1.440334320E-1
7.339818681E0,-9.171441197E-3,2.008396387E-2,-9.216022491E-2
7.355718339E0,-1.851135492E-2,1.009327173E-2,3.383922577E-2
7.371617998E0,-1.181446016E-3,3.468155861E-2,1.934576035E-1
7.387487138E0,2.845188230E-2,4.838919640E-2,1.138696671E-1
7.403356279E0,-1.353975385E-2,5.758753419E-2,-4.460430145E-2
7.419286455E0,-2.478293329E-2,4.724058509E-2,-1.792297363E-1
7.435125078E0,3.662258387E-3,2.966499329E-2,-8.902454376E-2
7.451024736E0,7.728740573E-3,7.671803236E-3,2.741336823E-2
7.466893877E0,-8.859395981E-3,-1.281118393E-2,9.844398499E-2
7.482763017E0,-2.651572227E-3,-4.756152630E-3,5.709934235E-2
7.498632158E0,-1.525529474E-2,-1.538792253E-2,-2.483940125E-2
7.514531816E0,-2.129378915E-2,-2.139642835E-2,-6.127071381E-2
7.530370439E0,2.719737589E-3,-9.992152452E-3,-2.349948883E-2
7.546300615E0,-1.427426189E-2,4.543989897E-3,-7.285118103E-3
7.562169755E0,-1.117545366E-2,5.851387978E-3,9.003639221E-3
7.578130449E0,-1.460076123E-2,-2.696692944E-3,1.383781433E-3
7.594030107E0,-1.620814949E-2,-1.332134008E-3,-4.214763641E-2
7.609838212E0,-3.235802054E-2,-1.670300961E-3,-3.780078888E-2
7.625768388E0,-2.962034941E-2,2.301946282E-2,1.441574097E-2
7.641607011E0,4.260294139E-3,4.469752312E-3,6.187057495E-2
7.657476152E0,7.075592875E-3,1.133871078E-2,-2.709579468E-2
7.673345293E0,-9.265385568E-3,1.646597683E-2,-7.056808472E-2
7.689244951E0,-1.446150988E-2,-1.484070718E-2,-5.182266235E-2
7.705236162E0,-6.321594119E-3,-8.619278669E-3,1.718425751E-2
7.721105302E0,-2.479739487E-3,-1.447772980E-2,4.792499542E-2
7.737004961E0,-1.008224487E-2,-2.200257778E-2,5.718612671E-2
7.752843584E0,-2.699993551E-3,-1.733581722E-2,9.056091309E-3
7.768682207E0,-6.674490869E-3,-3.040030599E-2,-3.663730621E-2
7.784612382E0,-9.893819690E-3,-1.272262633E-2,3.891944885E-3
7.800451005E0,-2.934627235E-3,-2.387849987E-2,6.137847900E-3
7.816289629E0,-1.383156329E-2,-2.036209404E-2,-6.822872162E-2
7.832128252E0,-6.487006694E-2,-1.045154780E-2,-1.234588623E-1
7.847997392E0,-6.524337083E-2,-2.348725498E-2,-1.187543869E-1
7.863897050E0,-3.007521480E-2,-7.875710726E-3,-8.790969849E-3
7.879735673E0,2.021355182E-2,-8.972398937E-4,1.681804657E-1
7.895635332E0,4.136902094E-2,-2.234234661E-2,1.561136246E-1
7.911504472E0,-7.128708065E-3,-5.959683657E-2,1.239490509E-2
7.927434648E0,-4.694121331E-2,-4.879880324E-2,-1.001653671E-1
7.943364824E0,-3.473736346E-2,-1.313561760E-2,-2.078952789E-1
7.959264482E0,3.634081781E-2,-2.543035895E-3,-1.742992401E-1
7.975133623E0,8.541800827E-2,7.955595851E-3,2.615880966E-1
7.991033281E0,-9.628154337E-3,-1.951218396E-2,3.119821548E-1
8.006932939E0,-1.359286159E-2,-2.990731597E-2,-9.016513824E-2
8.022863115E0,4.579727352E-2,-3.187407553E-2,-3.605766296E-1
8.038732255E0,-1.685731113E-2,-3.727667034E-2,-2.094602585E-1
8.054601396E0,-5.922005326E-2,5.132362247E-3,1.309089661E-1
8.070501054E0,-5.395855010E-2,5.847454071E-3,4.760494232E-1
8.086400712E0,-1.159289479E-2,9.563431144E-3,3.493432999E-1
8.102300371E0,2.604790404E-2,3.945663571E-3,-1.007108688E-1
8.118169511E0,-1.518704742E-2,-2.345328033E-2,-3.879098892E-1
8.134069170E0,-3.164543957E-2,-5.810832977E-2,-2.942113876E-1
8.149968828E0,-1.238737255E-2,-6.421579421E-2,1.996231079E-2
8.165868486E0,1.461274922E-3,-8.780705929E-2,3.269987106E-1
8.181798662E0,-4.680067301E-3,-1.109547317E-1,1.644182205E-1
8.197667802E0,-3.341346979E-3,-6.933686137E-2,6.663036346E-2
8.213567461E0,-3.007089347E-2,-4.513919353E-2,-1.678562164E-1
8.229467119E0,-5.008947849E-2,1.313647628E-2,-8.143043518E-2
8.245366777E0,-6.757885218E-3,3.409764171E-2,-3.079795837E-2
8.261205400E0,3.487140313E-2,8.527517319E-3,6.538772583E-2
8.277105058E0,-3.377391398E-2,-3.385883570E-2,1.208677292E-1
8.293004716E0,2.248421311E-3,-4.399183393E-2,-5.111694336E-2
8.308934892E0,2.309156209E-2,-5.779021978E-2,-2.108011246E-1
8.324865068E0,-3.685848415E-2,-5.172985792E-2,-1.602029800E-1
8.340825761E0,-8.823744953E-3,-4.077973962E-2,1.397762299E-1
8.356664384E0,1.698657498E-2,-2.648380399E-2,2.121820450E-1
8.372564043E0,3.000625595E-2,8.885353804E-3,9.284210205E-2
8.388494218E0,1.004064083E-2,2.247786522E-2,-9.604644775E-2
8.404332841E0,-7.299967110E-3,2.222740650E-2,-1.196012497E-1
8.420293535E0,1.662324369E-2,1.174494624E-2,-1.126003265E-2
8.436223711E0,2.663880587E-3,-3.341898322E-2,1.139345169E-1
8.452123369E0,-2.626582235E-2,-7.107773423E-2,4.272460938E-2
8.467992509E0,-2.858492732E-2,-6.971615553E-2,2.555847168E-3
8.483831132E0,-4.935897887E-2,-6.909802556E-2,-2.807140350E-2
8.499761308E0,-2.246293798E-2,-4.859936237E-2,-4.667949677E-2
8.515630449E0,7.171556354E-3,-1.278895140E-2,-3.888797760E-2
8.531530107E0,-2.787366509E-3,-1.083326340E-2,-8.842468262E-2
8.547551836E0,-1.998263225E-2,-1.637214422E-2,-2.050876617E-2
8.563482011E0,-8.652079850E-3,-2.205789089E-2,7.615375519E-2
8.579320634E0,3.595732152E-3,-6.130027771E-2,1.224250793E-1
8.595311845E0,-2.611788735E-2,-6.250226498E-2,-1.425743103E-3
8.611272539E0,-4.387630150E-2,-1.609551907E-2,-3.190803528E-2
8.627172197E0,-3.181988746E-2,-2.858030796E-2,-1.683712006E-2
8.643071855E0,-5.808327347E-3,-2.637350559E-2,2.220916748E-2
8.659032548E0,-2.298886701E-2,-4.149103165E-2,-2.017307281E-2
8.674901689E0,-3.871245310E-2,-5.414861441E-2,-4.338932037E-2
8.690892900E0,-3.032421693E-2,-6.809175014E-2,-1.120061874E-1
8.706792558E0,1.509011537E-2,-1.853048801E-2,5.890464783E-2
8.722722734E0,3.282316029E-3,-1.945483685E-2,2.081079483E-1
8.738561357E0,-2.660637721E-2,-3.095901012E-2,1.390352249E-1
8.754491533E0,-1.052685827E-2,-4.209882021E-2,-9.075355530E-2
8.770421709E0,-5.187807977E-2,-2.542316914E-2,-1.646471024E-1
8.786321367E0,-4.433902726E-2,7.988989353E-3,-2.621335983E-1
8.802221025E0,8.345785737E-2,1.287543774E-2,-1.124668121E-1
8.818120683E0,3.852017224E-2,-3.840243816E-2,4.682788849E-1
8.833989824E0,-2.164939418E-2,-8.660453558E-2,3.562555313E-1
8.849828447E0,-1.810197905E-2,-5.204248428E-2,-2.256574631E-1
8.865728105E0,4.457794130E-2,-2.382236719E-2,-5.198173523E-1
8.881627763E0,1.596559584E-2,-5.332112312E-3,-1.378860474E-1
8.897466386E0,-4.551527277E-2,-1.637810469E-2,2.826871872E-1
8.913396562E0,-6.041389331E-2,-3.752303123E-2,4.225301743E-1
8.929296220E0,-3.449476510E-2,-2.050375938E-2,2.288007736E-1
8.945165361E0,-3.267498687E-2,3.104150295E-2,-1.759138107E-1
8.961095537E0,-3.735763207E-2,4.380285740E-3,-3.215951920E-1
8.977056230E0,-2.359970659E-2,-2.142202854E-2,-1.553678513E-1
8.992955888E0,-1.520026103E-2,-6.680101156E-2,9.743309021E-2
9.008825029E0,7.807217538E-3,-1.145142317E-1,1.561336517E-1
9.024724687E0,-9.714946151E-3,-1.025621891E-1,8.752822876E-2
9.040624345E0,-1.553810388E-2,-4.216808081E-2,-3.890323639E-2
9.056462968E0,-1.715369523E-2,2.815663815E-3,-2.656269073E-2
9.072393144E0,-1.430658251E-2,-4.900932312E-3,5.760288239E-2
9.088292802E0,1.882692240E-2,-1.997625828E-2,6.754112244E-2
9.104222978E0,2.024757303E-2,-5.391538143E-3,-5.411052704E-2
9.120122636E0,-1.853671297E-2,-2.553838491E-2,-1.179819107E-1
9.136022295E0,-2.860963717E-2,-4.513114691E-2,5.783462524E-2
9.151860918E0,2.636897378E-2,-4.346024990E-2,-2.045001984E-1
9.167699541E0,-3.032537177E-2,-3.199118376E-2,-9.277343750E-3
9.183599199E0,-2.620677650E-2,-3.047418594E-2,1.931152344E-1
9.199498857E0,-1.178217307E-2,-3.079861403E-2,2.703886032E-1
9.215398515E0,-6.480038166E-3,-4.912197590E-3,7.215499878E-3
9.231267656E0,-1.410514116E-2,1.379173994E-2,-1.530094147E-1
9.247106279E0,-6.410010159E-3,3.534471989E-2,-1.523170471E-1
9.263005937E0,1.298105717E-2,4.218018055E-2,5.232429504E-2
9.278905595E0,1.894619502E-2,-2.768498659E-2,1.707839966E-1
9.294744218E0,-1.486701146E-2,-5.872553587E-2,7.574367523E-2
9.310613359E0,-1.239397563E-2,-6.615740061E-2,-4.829692841E-2
9.326574052E0,-4.086844251E-2,-3.768867254E-2,-6.699085236E-2
9.342473711E0,-5.840878934E-2,-2.724015713E-2,-3.050231934E-2
9.358342851E0,-2.426195890E-3,-9.274482727E-3,2.517509460E-2
9.374242509E0,-6.515491754E-3,-3.599357605E-2,8.787441254E-2
9.390111650E0,-6.681587547E-3,-3.858506680E-2,4.303932190E-3
9.406011308E0,-4.155403748E-2,-4.366552830E-2,-2.420616150E-2
9.421880449E0,-2.115266211E-2,-2.308750153E-2,-3.098869324E-2
9.437780107E0,-9.255619720E-3,-2.208590508E-2,-5.432605743E-2
9.453649248E0,-5.726331845E-3,-2.656412125E-2,-3.438854218E-2
9.469548906E0,-1.020369865E-2,-4.685497284E-2,-5.744075775E-2
9.485448564E0,1.017484628E-2,-4.412353039E-2,9.419536591E-2
9.501378740E0,-5.937674269E-2,-5.484521389E-2,2.454204559E-1
9.517278398E0,-3.173683584E-2,-2.562117577E-2,1.111440659E-1
9.533239091E0,-3.117958084E-3,2.586758137E-2,-1.789321899E-1
9.549108232E0,-4.869662970E-2,1.462888718E-2,-2.456350327E-1
9.564977373E0,-9.859506041E-3,3.373408318E-2,-1.775741577E-1
9.580907548E0,9.457018971E-2,5.597949028E-3,3.953266144E-2
9.596807207E0,7.208205760E-3,-7.337474823E-2,4.239349365E-1
9.612737382E0,7.353927940E-4,-9.980201721E-2,1.916837692E-1
9.628576005E0,-7.070889324E-2,-8.516597748E-2,-1.442804337E-1
9.644414629E0,2.559301443E-3,-4.611313343E-2,-4.389505386E-1
9.660314287E0,6.744331680E-3,7.579207420E-3,-3.820323944E-2
9.676213945E0,-2.432620339E-2,1.207590103E-3,3.077335358E-1
9.692113603E0,-5.252338946E-2,-3.248357773E-2,2.768592834E-1
9.708013261E0,-2.552525885E-2,2.118647099E-2,-1.805686951E-2
9.723882402E0,-1.991295256E-2,3.560101986E-2,-1.787338257E-1
9.739782060E0,-1.992689446E-3,2.660489082E-2,-1.472797394E-1
9.755651201E0,-3.699845448E-2,-1.714384556E-2,-7.951164246E-2
9.771642412E0,-1.925270818E-2,-8.017170429E-2,9.598636627E-2
9.787481035E0,-2.841770649E-3,-1.344960928E-1,1.439542770E-1
9.803380693E0,-4.530508444E-2,-1.315155029E-1,1.312379837E-1
9.819219316E0,-5.088664591E-3,-7.027709484E-2,7.232666016E-2
9.835118974E0,-2.821657248E-2,-1.784646511E-2,1.021385193E-3
9.851171220E0,-2.787308022E-2,5.332827568E-3,-8.059501648E-3
9.867040361E0,-4.495588690E-2,1.693141460E-2,-6.948661804E-2
9.882909502E0,-2.397800051E-2,2.859318256E-2,-3.940200806E-2
9.898839677E0,-6.069902331E-3,8.850216866E-3,1.245784760E-2
9.914739336E0,-7.716968656E-3,-2.625668049E-2,1.240758896E-1
9.930577959E0,3.766521439E-2,-3.545778990E-2,-8.540630341E-2
9.946508134E0,-5.567255989E-2,-2.515304089E-2,5.471611023E-2
9.962377275E0,-1.488918811E-2,-1.322138309E-2,8.459091187E-4
9.978276933E0,-8.204374462E-3,2.516943216E-2,-1.948070526E-2
9.994146074E0,-9.549718350E-3,1.836240292E-2,3.684616089E-2
1.001007625E1,-2.171464264E-3,-8.851885796E-3,4.278373718E-2
1.002591487E1,-1.157572493E-2,-2.310568094E-2,3.812789917E-2
1.004181453E1,-6.327554584E-3,-1.575613022E-2,6.119441986E-2
1.005765315E1,-1.198463887E-2,-2.158105373E-3,-4.825592041E-4
1.007361385E1,-3.624063358E-2,-3.343570232E-2,-2.854061127E-2
1.008957454E1,-2.933213860E-2,-3.670686483E-2,-3.965568542E-2
1.010541316E1,-1.511641219E-2,-2.452641726E-2,3.315162659E-2
1.012134334E1,-4.659354687E-3,-3.280818462E-2,1.034908295E-1
1.013724300E1,-1.778803021E-2,-2.661645412E-2,-1.546287537E-2
1.015314266E1,-2.923659608E-2,1.232749224E-2,-9.373569489E-2
1.016904231E1,-3.219552338E-2,2.401590347E-2,-9.266567230E-2
1.018494197E1,-2.610261738E-2,4.397720098E-2,-8.890724182E-2
1.020084163E1,6.906725466E-3,6.746053696E-4,7.059955597E-2
1.021671077E1,-7.231652737E-3,5.979299545E-3,9.592819214E-2
1.023261043E1,2.862595022E-3,-3.256201744E-3,6.124114990E-2
1.024847957E1,-2.409352362E-2,3.029584885E-3,5.696582794E-2
1.026437923E1,-2.783060819E-2,2.295064926E-2,-8.272171021E-3
1.028027889E1,-1.255077869E-2,3.847497702E-2,-3.995704651E-2
1.029617854E1,-1.828251034E-2,-3.977239132E-3,-2.472114563E-2
1.031210872E1,-5.424760282E-3,-3.947615623E-3,2.225399017E-2
1.032800838E1,-3.234654665E-3,8.774936199E-3,9.070587158E-2
1.034390804E1,-2.383749187E-2,-2.621412277E-4,5.848217010E-2
1.035974666E1,-2.331291884E-2,-4.833936691E-5,1.655673981E-2
1.037567684E1,-5.071064830E-2,1.212275028E-2,-8.758544922E-2
1.039160701E1,-3.202354163E-2,2.921175957E-2,-1.652259827E-1
1.040750667E1,2.935092896E-2,-2.209246159E-3,-1.085443497E-1
1.042340633E1,1.519708335E-2,1.114934683E-3,1.349792480E-1
1.043924495E1,-5.323976278E-3,5.331993103E-3,2.825698853E-1
1.045508357E1,-3.101710975E-2,2.102148533E-2,1.114006042E-1
1.047092220E1,-4.622229189E-2,3.684651852E-2,-8.375740051E-2
1.048682186E1,-7.706751674E-2,3.940939903E-2,-2.451896667E-1
1.050269100E1,-2.604027092E-2,5.386620760E-2,-3.511228561E-1
1.051859065E1,2.576562017E-2,4.860863090E-2,2.687835693E-1
1.053458186E1,7.392695546E-2,1.126101613E-2,3.546667099E-1
1.055042049E1,-2.639429271E-2,-3.992938995E-2,8.105182648E-2
1.056632015E1,-2.138980478E-2,-4.721349478E-2,-4.439764023E-1
1.058225032E1,3.720756993E-2,-7.864028215E-3,-5.209493637E-1
1.059811946E1,-1.701108366E-2,2.103462815E-2,-3.249740601E-2
1.061401912E1,-6.420607865E-2,2.380442619E-2,5.684099197E-1
1.062991878E1,-2.855681628E-2,6.513848901E-2,6.086130142E-1
1.064581844E1,-1.621483266E-2,6.405737996E-2,1.455812454E-1
1.066165706E1,-7.014900446E-3,5.306509137E-2,-2.048940659E-1
1.067755672E1,-3.770513088E-2,5.157013237E-2,-3.204526901E-1
1.069339534E1,-1.505422592E-2,3.882391751E-2,-1.723642349E-1
1.070929500E1,-2.377033234E-2,1.730063558E-2,-3.851032257E-2
1.072522518E1,-1.428131759E-2,6.255134940E-3,5.945205688E-2
1.074106380E1,2.129474282E-2,-1.936613023E-2,5.682563782E-2
1.075690242E1,1.640744507E-3,-9.267762303E-3,3.502464294E-2
1.077283260E1,-2.726595104E-2,3.519026935E-2,1.562881470E-2
1.078574153E1,-4.798136652E-2,4.137864709E-2,5.615711212E-2
1.080170223E1,-9.460061789E-3,5.543855205E-2,3.443908691E-2
1.081757137E1,7.991991937E-3,5.994326621E-2,3.910255432E-2
1.083340999E1,4.837237298E-3,4.833963513E-2,-5.676269531E-2
1.084927913E1,-9.648703039E-3,3.688564524E-2,-1.142959595E-1
1.086517879E1,-5.381397903E-3,1.224611327E-2,-8.081912994E-2
1.088110896E1,1.071128249E-2,1.145210676E-2,-9.520912170E-2
1.089700862E1,-4.461549222E-3,3.109706752E-2,-2.100372314E-2
1.091290828E1,7.388658822E-3,2.163369209E-2,1.154642105E-1
1.092880794E1,3.571331501E-3,3.915166110E-2,1.370449066E-1
1.094473812E1,-9.698934853E-3,7.793116570E-2,4.133605957E-2
1.096060726E1,-2.392065525E-2,6.148812920E-2,-5.914306641E-2
1.097647640E1,-2.278719842E-2,7.340871543E-2,-7.343292236E-2
1.099237605E1,-2.772688866E-3,4.233123362E-2,2.001476288E-2
1.100830623E1,-1.396805048E-3,3.564743698E-2,4.404640198E-2
1.102417537E1,-1.145347208E-2,1.150362194E-2,1.543140411E-2
1.104007503E1,-2.839665860E-2,8.523769677E-3,-1.189231873E-3
1.105591365E1,-2.832384408E-2,1.795554161E-2,-5.131626129E-2
1.107181331E1,-4.557613283E-2,1.168806851E-2,-4.159355164E-2
1.108768245E1,-3.883627057E-2,3.247062862E-2,-5.533218384E-3
1.110352107E1,-1.032918692E-3,2.915655077E-2,4.490566254E-2
1.111951228E1,-3.746837378E-3,2.948535979E-2,3.312873840E-2
1.113538142E1,1.061736047E-2,3.354121745E-2,4.629135132E-3
1.115125057E1,-1.768143475E-2,4.476265609E-2,-1.906204224E-2
1.116715022E1,-1.001845300E-2,4.188758135E-2,-7.625961304E-2
1.118308040E1,-4.344579577E-2,3.975398839E-2,7.795333862E-3
1.119891902E1,-1.486099511E-2,6.475639343E-2,-1.829051971E-2
1.121484920E1,-1.934605837E-2,4.222737253E-2,3.703594208E-2
1.123071834E1,-4.812031984E-3,6.063526869E-2,-1.058578491E-2
1.124661800E1,-1.937747747E-2,4.114982486E-2,-4.145145416E-2
1.126248714E1,-9.687729180E-3,7.503014803E-2,-6.035327911E-2
1.127847835E1,-4.127167165E-3,4.927492142E-2,1.652431488E-2
1.129437801E1,9.027235210E-3,4.476791620E-2,9.624481201E-3
1.131024715E1,-9.138435125E-3,3.287097812E-2,-1.880931854E-2
1.132611629E1,-3.776058555E-2,2.630650997E-2,-3.528976440E-2
1.134195491E1,-7.026173174E-3,1.815560460E-2,-1.348590851E-2
1.135788509E1,-9.350948036E-3,3.626695275E-2,2.988052368E-2
1.137375423E1,5.018919706E-3,4.913464189E-2,2.538394928E-2
1.138968440E1,-1.663623750E-2,3.738310933E-2,1.373577118E-2
1.140558406E1,-1.443593204E-2,4.464751482E-2,-1.466083527E-2
1.142145320E1,-1.906128973E-2,5.011340976E-2,-3.827571869E-2
1.143747493E1,-1.403115690E-2,5.192944407E-2,-3.559017181E-2
1.145331355E1,-3.319855034E-2,4.521605372E-2,2.691459656E-2
1.146921321E1,-1.208275557E-2,2.861210704E-2,5.830764771E-2
1.148505184E1,-2.586856484E-3,3.023546934E-2,2.031421661E-2
1.150089046E1,-1.463263482E-2,4.838234186E-2,-5.693435669E-3
1.151679012E1,-2.199883014E-2,4.734560847E-2,-5.683898926E-4
1.153265926E1,-5.048599094E-2,3.265196085E-2,-1.461505890E-2
1.154852840E1,-2.867559344E-2,5.423834920E-2,3.118228912E-2
1.156436702E1,-9.094193578E-3,3.497308493E-2,2.432060242E-2
1.158026668E1,8.190669119E-3,3.215503693E-2,-4.476928711E-2
1.159610530E1,-4.112221301E-3,1.177853346E-2,-1.594238281E-1
1.161206600E1,-3.568632156E-2,1.615300775E-2,-5.874443054E-2
1.162802669E1,9.569175541E-3,3.648325801E-2,1.663637161E-1
1.164392635E1,-2.175171673E-2,6.267705560E-2,1.857414246E-1
1.165982601E1,-5.772759765E-2,7.484313846E-2,-1.014709473E-2
1.167566463E1,-3.336949646E-2,5.084839463E-2,-1.724901199E-1
1.169159480E1,-1.491791010E-2,3.379914165E-2,-1.411266327E-1
1.170746394E1,-4.055070132E-2,7.301270962E-3,-1.842069626E-1
1.172339412E1,5.061808228E-2,6.586569548E-2,2.442131042E-1
1.173932430E1,6.529460102E-2,5.945929885E-2,4.118633270E-1
1.175516292E1,-2.915468812E-2,6.478032470E-2,-2.586936951E-2
1.177115413E1,-4.924096912E-2,1.297035813E-2,-5.018911362E-1
1.178705379E1,1.254296303E-2,-8.501797915E-3,-5.283565521E-1
1.180295345E1,-2.055674791E-3,1.857870817E-2,-4.777526855E-2
1.181888362E1,-2.960564941E-2,3.648814559E-2,4.926500320E-1
1.183472225E1,-1.419401914E-2,4.376295209E-2,6.027660370E-1
1.185068294E1,-9.629011154E-3,8.712318540E-2,1.916389465E-1
1.186661312E1,-9.456641972E-3,9.629130363E-2,-2.048234940E-1
1.188248226E1,-1.933094114E-2,1.013588309E-1,-3.262033463E-1
1.189838191E1,-3.221119195E-2,6.492853165E-2,-1.607341766E-1
1.191431209E1,-6.299927831E-3,1.002013683E-3,3.315448761E-2
1.193018123E1,6.175853312E-3,-2.932649851E-2,1.025495529E-1
1.194608089E1,1.112855226E-2,-2.362829447E-2,6.192779541E-2
1.196204158E1,-2.302262187E-2,4.225015640E-3,-2.649116516E-2
1.197791072E1,-6.502253562E-2,4.905575514E-2,-2.394580841E-2
1.199381038E1,-2.723746002E-2,7.334566116E-2,1.686191559E-2
1.200967952E1,-1.262740791E-2,7.236713171E-2,4.085826874E-2
1.202551814E1,5.602456629E-3,3.325235844E-2,5.540943146E-2
1.204138728E1,-8.684791625E-3,1.032304764E-2,-2.339458466E-2
1.205722591E1,-3.785357624E-2,4.301130772E-3,-5.432510376E-2
1.207321712E1,1.036241651E-3,1.729846001E-2,-8.622169495E-3
1.208908626E1,-2.285291255E-2,3.074282408E-2,-4.927349091E-2
1.210498592E1,-2.237217873E-2,4.388880730E-2,-5.398941040E-2
1.212088558E1,-2.429433167E-3,5.065876245E-2,8.289337158E-3
1.213684627E1,2.700634301E-3,7.326304913E-2,8.498191833E-2
1.215274593E1,-2.998988330E-2,6.292110682E-2,2.291679382E-2
1.216858455E1,-1.524838805E-2,3.511512280E-2,-5.587100983E-2
1.218448421E1,-1.526959240E-2,4.398387671E-2,3.288936615E-2
1.220032283E1,5.476281047E-3,2.987354994E-2,9.059906006E-3
1.221616146E1,-6.298050284E-4,3.294092417E-2,3.069400787E-2
1.223212215E1,-1.150955260E-2,2.893531322E-2,-3.509521484E-4
1.224802181E1,-1.476648450E-2,2.009916306E-2,-5.772399902E-2
1.226389095E1,-7.491469383E-3,1.867294312E-2,-4.806423187E-2
1.227976009E1,-2.702857554E-2,8.422732353E-4,4.665374756E-3
1.229565975E1,-2.051501721E-2,1.410406828E-2,-2.458572388E-3
1.231155940E1,-6.948791444E-3,1.972049475E-2,1.917362213E-2
1.232742854E1,2.364374697E-3,1.529318094E-2,7.317543030E-3
1.234332820E1,2.484016120E-3,2.482932806E-2,-1.887607574E-2
1.235916683E1,-2.144287527E-2,4.936653376E-2,-5.707836151E-2
1.237509700E1,-1.971661299E-2,2.935558558E-2,-3.309154510E-2
1.239105770E1,-2.035306394E-2,4.349356890E-2,1.480007172E-2
1.240689632E1,-6.355248392E-3,6.189155579E-2,5.314922333E-2
1.242273494E1,1.046828926E-3,4.338443279E-2,5.369186401E-3
1.243863460E1,1.468710601E-3,3.628146648E-2,-1.843357086E-2
1.245456478E1,1.570475101E-2,3.162324429E-3,-3.507518768E-2
1.247052547E1,-1.347010583E-2,3.069913387E-2,-2.543163300E-2
1.248642513E1,-1.847505569E-2,1.315635443E-2,1.531505585E-2
1.250238582E1,-1.883023232E-2,2.177876234E-2,8.187294006E-3
1.251822444E1,-1.150535792E-2,1.295948029E-2,2.743816376E-2
1.253406307E1,-4.111506045E-3,1.578867435E-2,1.558685303E-2
1.254999324E1,-1.094177365E-2,2.346664667E-2,2.049350739E-2
1.256583187E1,-7.825486362E-3,9.791314602E-3,3.975582123E-2
1.258173152E1,-6.971463561E-3,2.253955603E-2,-5.628585815E-3
1.259757015E1,-4.016742110E-3,1.929563284E-2,-1.228885651E-1
1.261340877E1,-3.559535742E-2,1.387178898E-3,-1.373329163E-1
1.262933894E1,-2.887302637E-2,1.680761576E-2,1.317977905E-3
1.264517757E1,1.441928744E-2,1.993393898E-2,2.309761047E-1
1.266107723E1,1.468501240E-2,3.914147615E-2,1.878795624E-1
1.267694637E1,-5.288850516E-2,1.465070248E-2,-1.204900742E-1
1.269281551E1,-4.216738045E-2,1.288223267E-2,-2.279663086E-1
1.270874568E1,-4.299844056E-2,4.374086857E-3,-1.107225418E-1
1.272458431E1,-2.891788632E-2,1.194256544E-2,-6.794357300E-2
1.274045345E1,4.414156079E-2,4.489415884E-2,2.788295746E-1
1.275635310E1,5.688481033E-2,3.412455320E-2,3.146553040E-1
1.277222225E1,-1.691337675E-2,1.460158825E-2,-1.051998138E-2
1.278812190E1,-3.579687327E-2,-5.955696106E-3,-3.504085541E-1
1.280399104E1,2.193698287E-2,-9.568035603E-3,-4.104776382E-1
1.281986019E1,-1.511768252E-2,1.143872738E-2,-1.166810989E-1
1.283575984E1,-2.400949597E-3,3.147226572E-2,3.159046173E-1
1.285165950E1,-3.201590478E-2,5.297309160E-2,4.616708755E-1
1.286755916E1,-1.035719365E-2,4.618984461E-2,2.226428986E-1
1.288354031E1,7.224351168E-3,5.473965406E-2,-1.500844955E-1
1.289937894E1,-3.587281704E-2,2.466559410E-2,-3.099880219E-1
1.291527860E1,-3.149580956E-2,-7.843315601E-3,-1.542854309E-1
1.293114774E1,-3.811298311E-2,-2.439373732E-2,6.566619873E-2
1.294710843E1,-4.651769996E-3,-3.296875954E-2,1.564435959E-1
1.296294705E1,-8.975788951E-3,-2.380859852E-2,7.985782623E-2
1.297881619E1,-3.058093041E-2,2.829545736E-2,-1.812839508E-2
1.299465482E1,-3.065039217E-2,6.884330511E-2,-4.910182953E-2
1.301052396E1,-3.520299494E-2,7.511305809E-2,-3.707408905E-2
1.302645413E1,-1.765200496E-2,3.993505239E-2,-5.986213684E-3
1.304232327E1,1.479531080E-2,4.794359207E-3,6.101608276E-2
1.305822293E1,8.289419115E-3,4.199087620E-3,1.317405701E-2
1.307406155E1,-3.197315335E-2,2.569794655E-3,-1.306056976E-2
1.308986966E1,7.034689188E-3,1.824063063E-2,-8.242034912E-2
1.310579984E1,-1.161920279E-2,2.282148600E-2,-2.494335175E-2
1.312169949E1,8.231341839E-3,3.576022387E-2,-2.499485016E-2
1.313759915E1,-2.590291202E-3,5.113428831E-2,2.044487000E-2
1.315346829E1,-1.673702151E-2,4.631406069E-2,3.960227966E-2
1.316936795E1,-2.132839710E-2,4.921108484E-2,-4.886817932E-2
1.318526761E1,6.762668490E-4,2.340090275E-2,-1.762676239E-2
1.320611111E1,1.669503748E-2,-1.039326191E-3,-6.309223175E-2
1.322204129E1,-8.556425571E-3,2.598208189E-2,8.529376984E-2
1.323787991E1,-9.463824332E-3,6.709158421E-3,8.679389954E-3
1.325377957E1,-4.626496136E-2,1.291710138E-2,5.661392212E-2
1.326961820E1,-2.021572739E-2,1.179003716E-2,-1.035785675E-2
1.328545682E1,-1.530410349E-2,1.159447432E-2,-7.019996643E-2
1.330144803E1,-1.538452506E-2,2.910661697E-2,-3.672790527E-2
1.331728665E1,-1.771057397E-2,2.003371716E-3,-3.306388855E-3
1.333312528E1,-1.532780379E-2,8.025765419E-4,3.014087677E-2
1.334905545E1,4.113167524E-3,-1.559257507E-2,3.969764709E-2
1.336498563E1,-3.394792229E-2,1.706308126E-2,-2.249717712E-2
1.338082425E1,-2.774454653E-3,2.354454994E-2,-4.639720917E-2
1.339675443E1,-2.716160566E-2,5.249691010E-2,-1.528930664E-2
1.341268460E1,-2.085349709E-2,2.759826183E-2,-5.806922913E-3
1.342852322E1,-1.437532902E-2,2.189522982E-2,3.240489960E-2
1.344436185E1,-9.627565742E-3,1.553457975E-2,3.235530853E-2
1.346029202E1,-2.835793793E-2,2.019804716E-2,-3.546714783E-3
1.347613065E1,-1.694127917E-3,1.540112495E-2,-2.269649506E-2
1.349206082E1,1.303989440E-2,1.781821251E-3,-2.513217926E-2
1.350802152E1,-8.847653866E-3,1.327610016E-2,-1.806735992E-2
1.352395169E1,-4.530236125E-3,2.041685581E-2,2.248954773E-2
1.353979031E1,1.438191533E-2,8.098840714E-3,1.039409637E-2
1.355572049E1,-5.145676434E-3,1.673102379E-4,2.226543427E-2
1.357162015E1,-1.979494095E-2,2.581983805E-2,1.019001007E-2
1.358745877E1,-3.223702312E-2,1.576972008E-2,2.443885803E-2
1.360332791E1,-1.552671194E-2,3.008204699E-2,-2.035140991E-3
1.361925809E1,3.789819777E-3,1.197397709E-2,-2.617740631E-2
1.363518826E1,1.440733671E-3,7.017850876E-3,-9.684562683E-3
1.365108792E1,-1.537323743E-2,2.136230469E-3,3.314018250E-2
1.366698758E1,-1.023795456E-2,1.111501455E-2,7.839393616E-2
1.368285672E1,9.656831622E-3,2.367889881E-2,6.404876709E-3
1.369872586E1,-3.530097753E-2,3.065466881E-3,-1.063060760E-1
1.371459500E1,-5.158294737E-2,1.848018169E-2,-1.209926605E-1
1.373049466E1,1.354300976E-2,2.524405718E-2,-2.811908722E-2
1.374633328E1,2.555800229E-2,3.735470772E-2,1.652860641E-1
1.376217190E1,-1.025702059E-2,3.853470087E-2,1.769390106E-1
1.377810208E1,-2.666948736E-2,3.355109692E-2,-7.695960999E-2
1.379400174E1,-3.386526555E-2,-8.809149265E-3,-1.489496231E-1
1.380987088E1,-4.434696585E-2,-1.610749960E-2,-6.074142456E-2
1.382570950E1,-4.023814946E-2,-7.885515690E-3,-8.283805847E-2
1.384157864E1,5.109085515E-2,2.728214860E-2,6.492424011E-2
1.385760037E1,8.270414174E-2,1.818519831E-2,1.840114594E-1
1.387350003E1,-2.349096537E-2,-1.870304346E-2,6.386566162E-2
1.388939969E1,-2.201616019E-2,-2.122691274E-2,-2.285633087E-1
1.390523831E1,1.744715869E-2,-3.029376268E-3,-2.745494843E-1
1.392110745E1,2.300349250E-2,3.921896219E-3,-8.374214172E-2
1.393703763E1,-4.190121591E-2,3.238144517E-2,2.123327255E-1
1.395293729E1,-4.902939498E-2,3.667083383E-2,3.913297653E-1
1.396883695E1,-3.133639693E-3,7.268193364E-2,2.331209183E-1
1.398473660E1,-1.225399971E-2,3.836610913E-2,-1.594924927E-1
1.400060574E1,-1.454059035E-2,1.672410965E-2,-3.008403778E-1
1.401653592E1,-2.430699766E-2,-9.591996670E-3,-1.671428680E-1
1.403240506E1,-1.416736096E-2,-2.799588442E-2,3.819274902E-2
1.404830472E1,-1.293107867E-2,-3.943535686E-2,1.430063248E-1
1.406429593E1,9.487137198E-3,-3.278452158E-2,8.994197845E-2
1.408022611E1,-1.930131763E-2,-1.115602255E-2,3.342628479E-3
1.409606473E1,-3.385720402E-2,-4.816025496E-3,-7.579803467E-2
1.411196439E1,-3.388503194E-2,2.618476748E-2,-4.976654053E-2
1.412792508E1,-3.286938369E-2,1.653754711E-2,9.726524353E-3
1.414385526E1,7.778443396E-3,3.106713295E-3,5.724525452E-2
1.415969388E1,2.649217844E-3,7.604807615E-3,5.453491211E-2
1.417568509E1,-2.033228427E-2,-1.818957925E-2,8.299541473E-2
1.419152371E1,7.199928164E-3,-1.364108920E-2,-7.765293121E-2
1.420745389E1,1.430451870E-2,-3.263053298E-2,-2.192201614E-1
1.422335355E1,-8.564040065E-3,-2.369686961E-3,-3.286647797E-2
1.423925320E1,-4.892982543E-3,2.196356654E-2,3.856754303E-2
1.425509183E1,2.863227576E-2,6.553840637E-2,2.154312134E-1
1.427093045E1,3.659201413E-2,6.162893772E-2,1.673517227E-1
1.428683011E1,8.100755513E-3,4.695975780E-2,4.033279419E-2
1.430276028E1,2.230666578E-3,1.295888424E-2,-8.429431915E-2
1.431859891E1,-3.102339804E-2,1.098498702E-2,-1.108198166E-1
1.433452908E1,-1.865568757E-2,-1.982940733E-2,-5.600166321E-2
1.435039822E1,1.399888843E-2,-2.910191566E-2,8.395195007E-3
1.436626736E1,-2.342358232E-3,-5.304791778E-2,6.086444855E-2
1.438216702E1,-3.737071157E-2,-4.094802216E-2,7.747459412E-2
1.439806668E1,-3.217114508E-2,-2.957978472E-2,3.666877747E-2
1.441405789E1,-1.789006591E-2,-2.007586882E-2,-6.506919861E-3
1.442995755E1,-1.804564893E-2,-3.482364118E-3,-1.376056671E-2
1.444588773E1,1.333750784E-3,9.433962405E-3,-9.037971497E-3
1.446178738E1,-9.248182178E-4,-9.449943900E-5,-4.740715027E-2
1.447771756E1,-2.063644677E-2,-1.076895744E-3,-3.788852692E-2
1.449370877E1,-4.267113656E-2,3.962922841E-3,-2.835273743E-2
1.450957791E1,-2.158638835E-2,-9.641703218E-5,-2.037048340E-3
1.452544705E1,-2.877399325E-3,-1.951495931E-2,5.542755127E-2
1.454134671E1,2.537600324E-2,-2.691315673E-2,2.910804749E-2
1.455724637E1,1.078656316E-2,-2.696944401E-2,1.237487793E-2
1.457311551E1,-1.830913126E-3,-2.438927069E-2,5.070400238E-2
1.458901517E1,-5.072009563E-2,-9.199898690E-3,5.790233612E-2
1.460494534E1,-3.462478518E-3,7.204703987E-3,2.853393555E-3
1.462081448E1,2.830252051E-3,-1.345612109E-2,-7.134437561E-2
1.463671414E1,-2.480582893E-2,-9.463824332E-3,-8.566665649E-2
1.465258328E1,-1.360207051E-2,-1.390237361E-2,-6.403541565E-2
1.466845242E1,-1.292033494E-2,-8.317708969E-3,1.032161713E-2
1.468432156E1,-1.435335726E-2,-1.952205598E-2,3.203105927E-2
1.470025174E1,2.487406135E-3,-2.935738862E-2,-2.765941620E-2
1.471612088E1,-1.982279122E-2,-3.946049511E-2,-3.706073761E-2
1.473199002E1,-2.278241515E-2,-3.300487995E-2,1.580524445E-2
1.474792020E1,-4.416143149E-2,-2.473732829E-2,3.037834167E-2
1.476378934E1,-1.089974493E-2,-3.052145243E-2,1.119670868E-1
1.477971951E1,8.954927325E-3,-5.281627178E-3,1.025295258E-1
1.479558865E1,-1.484909654E-2,-3.938391805E-3,-7.454299927E-2
1.481148831E1,-2.812330425E-2,-4.341721535E-2,-1.462135315E-1
1.482732694E1,-5.717055500E-2,-1.140899956E-2,-1.220092773E-1
1.484316556E1,-3.731460869E-2,-9.871572256E-4,-2.341403961E-1
1.485909573E1,7.858426869E-2,-8.773148060E-3,2.261352539E-2
1.487499539E1,7.518397272E-2,-8.669853210E-3,2.937269211E-1
1.489095609E1,-1.251669228E-2,-5.208194256E-2,1.887521744E-1
1.490682523E1,-1.380711794E-2,-6.576606631E-2,-1.031332016E-1
1.492272488E1,2.957827970E-2,-4.396247864E-2,-2.345132828E-1
1.493859402E1,-1.798528433E-2,1.225027442E-2,-1.861181259E-1
1.495446317E1,-6.739511341E-2,3.428128362E-2,1.138210297E-1
1.497033231E1,-3.419007361E-2,4.655182362E-2,3.849668503E-1
1.498629300E1,2.187938243E-2,2.485227585E-2,1.986455917E-1
1.500222318E1,-4.969835281E-4,5.356639624E-3,-1.173171997E-1
1.501806180E1,-3.796892613E-2,-3.311589360E-2,-2.870492935E-1
1.503390042E1,-5.765834451E-2,-5.314883590E-2,-1.979398727E-1
1.504973904E1,3.098584712E-3,-3.502693772E-2,1.020793915E-1
1.506566922E1,4.035354778E-2,-6.265303493E-2,2.847042084E-1
1.508159940E1,-4.934422672E-3,-5.923464894E-2,1.390161514E-1
1.509749905E1,-4.240629822E-2,-5.731949210E-2,-1.409254074E-1
1.511339871E1,-3.473888338E-2,-3.520953655E-2,-2.195978165E-1
1.512932889E1,-3.329470754E-2,-9.467869997E-3,-1.136264801E-1
1.514522855E1,-1.075366884E-2,1.037833095E-2,-9.839057922E-3
1.516109769E1,7.943656296E-3,-6.565600634E-3,1.154909134E-1
1.517696683E1,-5.168542266E-3,-1.829862595E-2,9.217739105E-2
1.519289700E1,-3.914082795E-2,-4.293209314E-2,2.241907120E-1
1.520876614E1,2.805037796E-2,-6.001251936E-2,-1.037063599E-1
1.522469632E1,7.115520537E-3,-5.402356386E-2,-2.495594025E-1
1.524062650E1,-1.913468540E-2,-4.099822044E-2,-1.173124313E-1
1.525652615E1,-2.394436300E-2,-2.744013071E-2,2.421627045E-1
1.527245633E1,2.658024803E-2,8.545100689E-3,1.807126999E-1
1.528829495E1,9.246576577E-3,5.179464817E-3,-1.779651642E-2
1.530428616E1,-4.318021983E-2,1.838701963E-2,-1.085863113E-1
1.532018582E1,-1.158114523E-2,1.066797972E-2,-1.130075455E-1
1.533605496E1,1.491440088E-2,-2.485895157E-2,3.122138977E-2
1.535195462E1,9.107343853E-3,-1.840388775E-2,1.562490463E-1
1.536794583E1,-8.064709604E-3,-7.766890526E-2,1.532459259E-2
1.538384549E1,-5.012427270E-2,-3.084951639E-2,-1.065492630E-1
1.539974515E1,-1.642879844E-2,-3.489905596E-2,-1.181840897E-1
1.541561429E1,-4.346789420E-2,-2.714383602E-2,2.593708038E-2
1.543151395E1,-1.506179571E-2,-4.837846756E-2,1.101961136E-1
1.544738309E1,-1.760458201E-2,-2.579909563E-2,2.915668488E-2
1.546328274E1,-8.424863219E-3,-3.895044327E-2,-9.496498108E-2
1.547927396E1,-1.854285598E-2,-1.280105114E-2,-1.685876846E-1
1.549514310E1,-1.863065362E-2,1.766586304E-2,-7.282257080E-3
1.551098172E1,-1.840425283E-2,-1.435858011E-2,1.947278976E-1
1.552688138E1,-3.957433254E-2,-3.411388397E-2,1.163311005E-1
1.554281155E1,-3.536649048E-3,-4.007518291E-2,-2.930259705E-2
1.555871121E1,-6.417892873E-3,-6.669402122E-3,-3.360557556E-2
1.557461087E1,2.922333777E-3,-1.991331577E-2,-9.083747864E-3
1.559051053E1,3.349877894E-3,-3.461843729E-2,-1.065893173E-1
1.560650174E1,-3.309857845E-2,-3.804469109E-2,-9.144020081E-2
1.562243192E1,-4.199498147E-2,-1.783490181E-3,-5.942630768E-2
1.563839261E1,1.930229738E-2,-1.705712080E-2,1.353206635E-1
1.565429227E1,-1.947676018E-2,-2.345365286E-2,2.195329666E-1
1.567016141E1,-3.849652782E-2,-7.959425449E-3,6.142139435E-2
1.568600003E1,-9.441513568E-3,5.531251431E-3,-1.686649323E-1
1.570189969E1,-2.625285089E-2,-5.049049854E-3,-1.302537918E-1
1.571779935E1,-2.427697182E-2,2.364915609E-2,-1.967544556E-1
1.573363797E1,5.791539326E-2,-1.633822918E-2,-7.827854156E-2
1.574956815E1,-1.060753316E-2,-2.879357338E-2,3.635349274E-1
1.576552884E1,-2.515127137E-2,-6.211853027E-2,2.156639099E-1
1.578142850E1,-3.248527274E-2,-5.689597130E-2,-2.081041336E-1
1.579738919E1,1.144850999E-2,-2.225154638E-2,-3.995590210E-1
1.581325833E1,2.142859250E-2,-4.597604275E-3,-7.729148865E-2
1.582909695E1,-5.533195287E-2,-1.209795475E-2,1.826543808E-1
1.584502713E1,-5.927659199E-2,7.608890533E-3,3.151788712E-1
1.586092679E1,-1.630805433E-3,2.198874950E-3,2.099714279E-1
1.587679593E1,2.437516674E-2,1.276963949E-2,-9.681034088E-2
1.589266507E1,-1.386459544E-2,3.553229570E-2,-2.477436066E-1
1.590859524E1,-2.637482807E-2,2.170401812E-2,-1.539230347E-1
1.592449490E1,-2.934604138E-2,-2.829486132E-2,5.999851227E-2
1.594036404E1,-1.729728654E-2,-6.565886736E-2,2.115354538E-1
1.595623318E1,2.882972360E-3,-1.013435721E-1,4.896259308E-2
1.597213284E1,-1.278324053E-2,-5.323696136E-2,-7.551097870E-2
1.598803250E1,-7.068820298E-3,-1.045048237E-3,-8.970451355E-2
1.600393216E1,-9.822882712E-3,2.747344971E-2,-4.860496521E-2
1.601977078E1,-8.671849966E-3,1.956450939E-2,2.617549896E-2
1.603567044E1,-4.551521689E-2,-2.917671204E-2,8.179759979E-2
1.605153958E1,-1.783952117E-3,-3.453123569E-2,6.063079834E-2
1.606740872E1,-4.165273160E-2,-1.089012623E-2,-3.821372986E-3
1.608324734E1,4.366230220E-3,-4.989326000E-3,-8.506774902E-3
1.609920804E1,3.845828399E-2,2.005279064E-3,-2.860326767E-1
1.611507718E1,-5.217146128E-2,-3.307032585E-2,6.786346436E-3
1.613097684E1,-2.046151459E-2,-2.996617556E-2,1.463727951E-1
1.614684598E1,-2.702957392E-2,3.403961658E-3,8.455371857E-2
1.616271512E1,-2.488413826E-2,8.771181107E-3,-1.364707947E-3
1.617861478E1,-2.181833610E-2,6.281852722E-3,-1.254386902E-1
1.619451444E1,-2.161133662E-2,2.125346661E-2,-1.459217072E-2
1.621038358E1,-4.102200270E-3,8.654236794E-3,-4.967308044E-2
1.622628323E1,-2.152039483E-2,-8.726596832E-3,1.044044495E-1
1.624218289E1,7.147602737E-3,-8.174598217E-3,-2.174758911E-2
1.625808255E1,4.635833204E-3,-4.160678387E-2,-1.625633240E-2
1.627404324E1,-2.047574148E-2,-6.744676828E-2,-3.466892242E-2
1.628988187E1,-4.445612431E-3,-6.962752342E-2,1.633167267E-2
1.630572049E1,-3.770333156E-2,-5.403035879E-2,4.958152771E-3
1.632168118E1,-3.047391772E-2,-8.138656616E-3,-2.325534821E-2
1.633758084E1,-2.892795950E-2,1.438224316E-2,-7.056713104E-2
1.635344998E1,-9.063441306E-3,1.477384567E-2,-6.023693085E-2
1.636931912E1,-1.387594268E-2,-5.952239037E-3,2.675628662E-2
1.638524930E1,-3.442318738E-2,-1.918983459E-2,1.159400940E-1
1.640114896E1,-1.217871159E-2,-9.265422821E-3,4.439830780E-2
1.641704861E1,-1.350368559E-2,-7.190585136E-3,-1.044845581E-2
1.643297879E1,-1.779925451E-2,8.068084717E-4,-4.124069214E-2
1.644887845E1,-1.270203292E-2,-1.262068748E-3,-4.070854187E-2
1.646477811E1,-1.769576222E-2,-1.526796818E-2,-4.496097565E-2
1.648070828E1,-4.046805203E-3,-1.120436192E-2,1.770973206E-2
1.649666898E1,4.914708063E-2,-3.807175159E-2,1.149177551E-3
1.651259915E1,1.491323113E-2,-3.537702560E-2,2.034282684E-2
1.652849881E1,-4.084704816E-2,-2.520298958E-2,3.931522369E-2
1.654445950E1,-2.799808607E-2,-2.421867847E-2,-9.275913239E-2
1.656038968E1,-4.778392613E-2,-3.668665886E-2,-1.194000244E-1
1.657638089E1,-7.108791173E-2,1.827132702E-2,-1.720933914E-1
1.659237210E1,7.607167214E-2,2.703785896E-2,-1.309709549E-1
1.660836331E1,5.388247967E-2,-3.704822063E-2,3.987302780E-1
1.662435452E1,-7.854297757E-3,-8.620011806E-2,2.065620422E-1
1.664034573E1,-6.393162161E-2,-6.428182125E-2,-2.426252365E-1
1.665630643E1,-3.398899361E-2,-2.682459354E-2,-5.499143600E-1
1.667229764E1,1.926082373E-2,3.852176666E-2,-1.617212296E-1
1.668828885E1,-2.790828049E-2,-2.908349037E-3,4.205045700E-1
1.670428006E1,-3.729647025E-2,-3.666567802E-2,4.101676941E-1
1.672021024E1,-2.830829099E-2,3.511273861E-2,-3.925609589E-2
1.673617093E1,-1.598983258E-2,8.616322279E-2,-3.638267517E-1
1.675210110E1,-2.790710703E-2,8.245831728E-2,-2.875785828E-1
1.676806180E1,-4.104822874E-2,-2.681851387E-3,3.118324280E-2
1.678393094E1,-2.003906295E-2,-9.073823690E-2,2.227697372E-1
1.679986111E1,-1.395928487E-2,-1.655654311E-1,1.429986954E-1
1.681582181E1,-6.870530546E-3,-1.490986347E-1,3.144836426E-2
1.683178250E1,1.981902495E-2,-4.759114981E-2,6.323909760E-2
1.684771268E1,-2.228373289E-2,2.142465115E-2,4.444122314E-2
1.686367337E1,-1.840471476E-2,3.825908899E-2,-4.390716553E-2
1.687969510E1,-1.470556110E-2,4.025614262E-2,-1.152667999E-1
1.689565579E1,1.092982292E-2,4.292637110E-2,-1.017026901E-1
1.691164700E1,-1.690533757E-2,2.088719606E-2,-6.198883057E-4
1.692760770E1,-1.619195193E-2,2.603352070E-2,5.327701569E-2
1.694362942E1,-1.976168901E-2,1.030147076E-3,1.131248474E-2
1.695962064E1,4.531542584E-2,-1.237255335E-2,-1.455640793E-1
1.697558133E1,-1.204955578E-2,-5.847036839E-3,-6.035518646E-2
1.699151151E1,-2.951341122E-2,-1.423656940E-2,-4.921340942E-2
1.700747220E1,-3.815642744E-2,1.974731684E-2,6.004333496E-2
1.702340237E1,-3.503740579E-2,1.753944159E-2,6.855297089E-2
1.703939359E1,-1.769521832E-2,2.364730835E-2,-4.590988159E-3
1.705538480E1,-5.566500127E-3,1.981675625E-2,1.786804199E-2
1.707137601E1,1.564680785E-2,-7.302343845E-3,5.221748352E-2
1.708736722E1,-1.463145018E-4,-4.026895761E-2,4.346466064E-2
1.710335843E1,-1.443476230E-2,-1.794129610E-2,-3.224372864E-2
1.711934964E1,-5.184989423E-2,-1.606601477E-2,-5.275344849E-2
1.713531033E1,-4.315973073E-2,2.789139748E-3,-5.389595032E-2
1.715124051E1,-2.075657248E-2,2.604997158E-2,-8.122539520E-2
1.716714017E1,-1.654815674E-2,2.335113287E-2,-8.696746826E-2
1.718310086E1,9.304508567E-4,1.463502645E-2,3.138542175E-3
1.719903104E1,3.730483353E-3,1.009345055E-3,-3.123664856E-2
1.721502225E1,-1.259587705E-2,-6.232023239E-3,8.042049408E-2
1.723101346E1,-1.418426633E-2,7.147490978E-4,-3.055953979E-2
1.724700467E1,-2.038183063E-2,1.783612370E-2,3.078937531E-2
1.726293484E1,-2.674750984E-2,2.432817221E-2,3.538131714E-3
1.727895657E1,-4.515317827E-2,3.476625681E-2,1.220512390E-2
1.729491727E1,-8.773960173E-3,2.273663878E-2,-9.873867035E-2
1.731090848E1,-1.121187210E-2,1.651620865E-2,-1.712064743E-1
1.732689969E1,-4.299230874E-3,2.365383506E-2,-1.285848618E-1
1.734289090E1,9.965702891E-3,1.820257306E-2,1.946640015E-2
1.735882108E1,-1.367114484E-2,1.712003350E-2,1.937637329E-1
1.737478177E1,-3.718569130E-2,2.263844013E-2,8.298587799E-2
1.739077298E1,-1.572535187E-2,2.271384001E-2,-7.574558258E-2
1.740676419E1,-3.142261505E-2,2.209821343E-2,-1.314420700E-1
1.742275540E1,-4.773808271E-2,2.790397406E-2,-2.707872391E-1
1.743871610E1,3.541408479E-2,2.084079385E-2,-1.727390289E-2
1.745467679E1,3.968808800E-2,4.595249891E-2,3.895320892E-1
1.747066800E1,1.802910119E-2,3.869320452E-2,2.143201828E-1
1.748662869E1,-4.793274403E-2,1.614876091E-2,-1.094732285E-1
1.750265042E1,2.413363010E-2,2.321034670E-3,-5.217018127E-1
1.751858060E1,3.189438581E-2,1.090100408E-2,-5.266027451E-1
1.753457181E1,-2.728613466E-2,2.224464715E-2,-4.288291931E-2
1.755056302E1,-5.557633936E-2,1.087644696E-2,5.006685257E-1
1.756655423E1,-1.190494001E-2,3.467106819E-2,5.411300659E-1
1.758254544E1,7.487177849E-3,6.093509495E-2,1.384229660E-1
1.759856717E1,-3.561886400E-2,6.777703017E-2,-1.780958176E-1
1.761455838E1,-4.966066778E-2,5.295237154E-2,-2.813730240E-1
1.763054959E1,-6.863126159E-2,4.191390425E-2,-1.881828308E-1
1.764651028E1,-1.262925565E-3,7.565192878E-3,-4.942417145E-2
1.766250150E1,1.372990012E-2,-1.011901349E-2,-1.597499847E-2
1.767849271E1,-2.412498742E-2,5.454581231E-3,-8.853912354E-3
1.769445340E1,-9.869143367E-3,1.035050303E-2,-6.522178650E-3
1.771044461E1,-1.500098407E-2,4.497753084E-2,1.257801056E-2
1.772640530E1,-9.334199131E-3,5.429023504E-2,7.763862610E-3
1.774242703E1,-5.285598338E-3,5.089903250E-2,1.495170593E-2
1.775835721E1,1.012776047E-2,3.617230058E-2,-1.783370972E-3
1.777431790E1,-7.544621825E-3,1.615905389E-2,-9.272766113E-2
1.779027860E1,-1.092620194E-2,4.182280600E-2,-3.042507172E-2
1.780620877E1,1.038999110E-2,3.055047989E-2,-6.865692139E-2
1.782216946E1,-1.389246434E-2,2.831792831E-2,-1.427974701E-1
1.783809964E1,-2.109012008E-2,5.260137469E-2,-7.329082489E-2
1.785406033E1,-1.828128844E-2,5.116085708E-2,4.650211334E-2
1.787005154E1,-1.255855709E-2,5.770200491E-2,6.097888947E-2
1.788601224E1,-2.387709916E-2,4.988545179E-2,3.664970398E-3
1.790197293E1,-7.456690073E-3,6.109747291E-2,-3.688240051E-2
1.791796414E1,-1.326254755E-2,4.942496121E-2,-1.518726349E-2
1.793395535E1,2.102859318E-3,5.329395831E-2,-7.863998413E-3
1.794991605E1,-3.721021116E-3,3.865784407E-2,1.857757568E-3
1.796590726E1,-4.223974049E-2,2.902899683E-2,-2.671241760E-2
1.798189847E1,-3.460434079E-2,7.573589683E-3,-6.005764008E-2
1.799788968E1,-2.694223821E-2,1.095171273E-2,-5.510330200E-2
1.801388089E1,-3.422558308E-3,3.873419762E-2,-3.818988800E-2
1.802981107E1,-1.602337509E-2,4.001110792E-2,2.675056458E-3
1.804577176E1,-6.975971162E-3,4.768791795E-2,5.256652832E-3
1.806170194E1,-3.345837444E-2,5.272503197E-2,6.732940674E-4
1.807766263E1,-1.852288842E-3,5.091357231E-2,-6.854438782E-2
1.809362332E1,-1.306055486E-2,4.307790101E-2,-5.877208710E-2
1.810958402E1,1.718662679E-3,4.361657798E-2,-4.423713684E-2
1.812554471E1,-1.715125889E-2,4.428663850E-2,-8.155822754E-3
1.814141385E1,-9.927593172E-3,5.407533050E-2,1.596927643E-2
1.815734402E1,-6.537511945E-4,5.056440830E-2,1.823425293E-3
1.817333524E1,-3.462806344E-3,4.653847218E-2,-1.948356628E-2
1.818929593E1,-2.316937596E-2,5.245533586E-2,-6.473827362E-2
1.820528714E1,-2.140604705E-2,3.093305230E-2,-5.735015869E-2
1.822124783E1,-2.421703190E-2,1.957932115E-2,-1.884937286E-2
1.823723904E1,-5.198828876E-3,4.388642311E-2,-1.145839691E-2
1.825319974E1,-2.917148173E-3,4.092967510E-2,4.624652863E-2
1.826919095E1,-3.664144874E-2,3.763791919E-2,-3.729152679E-2
1.828512112E1,-1.520888507E-2,2.276104689E-2,-4.421997070E-2
1.830111234E1,-2.951991558E-2,4.196789861E-2,-6.313133240E-2
1.831707303E1,-8.105710149E-3,4.569274187E-2,-3.898811340E-2
1.833303372E1,-5.757190287E-3,4.968830943E-2,-2.442741394E-2
1.834896390E1,3.761723638E-3,3.933927417E-2,2.107620239E-3
1.836486356E1,-2.259929478E-2,2.861273289E-2,3.105449677E-2
1.838082425E1,-1.716450602E-2,2.883365750E-2,2.413654327E-2
1.839675442E1,-1.880189031E-2,4.283797741E-2,-8.570575714E-2
1.841271512E1,-2.569711208E-2,2.965205908E-2,-2.123632431E-1
1.842867581E1,-3.112395853E-2,5.577009916E-2,-1.380481720E-1
1.844457547E1,2.046954632E-2,5.069240928E-2,1.301031113E-1
1.846053616E1,5.624294281E-3,5.930417776E-2,2.236032486E-1
1.847646634E1,1.225322485E-3,5.772602558E-2,-1.307010651E-2
1.849245755E1,-2.668245137E-2,2.143546939E-2,-1.898269653E-1
1.850844876E1,-4.649501294E-2,1.558709145E-2,-2.159252167E-1
1.852443997E1,-5.147092789E-2,3.275445104E-2,-2.566461563E-1
1.854040066E1,2.117563784E-2,6.151077151E-2,2.172136307E-1
1.855636136E1,5.734622106E-2,5.523991585E-2,3.775653839E-1
1.857235257E1,-2.299100161E-2,4.727098346E-2,2.351856232E-2
1.858834378E1,-3.076113760E-2,-1.166510582E-2,-4.166517258E-1
1.860433499E1,1.772043854E-2,7.201671600E-3,-5.507097244E-1
1.862032620E1,3.803230822E-3,1.134276390E-2,-2.016553879E-1
1.863631741E1,-5.221951008E-2,1.619702578E-2,3.627510071E-1
1.865227811E1,-2.471935749E-2,3.978946805E-2,5.852222443E-1
1.866823880E1,2.689526975E-2,9.663131833E-2,2.839775085E-1
1.868413846E1,1.961226016E-2,8.562353253E-2,-1.988677979E-1
1.870009915E1,-4.102972895E-2,7.594943047E-2,-3.418741226E-1
1.871605984E1,-6.663255394E-3,4.371160269E-2,-2.338638306E-1
1.873205106E1,-1.372760534E-2,-5.564332008E-3,-6.152439117E-2
1.874801175E1,-1.335250586E-2,-1.540741324E-2,6.048870087E-2
1.876400296E1,-7.824435830E-3,-2.761337161E-2,5.571842194E-2
1.877993314E1,-2.884896100E-2,9.752869606E-3,2.474784851E-2
1.879595486E1,-3.597566485E-2,6.021887064E-2,-4.926490784E-2
1.881191556E1,-3.593519330E-2,6.593751907E-2,-6.824111938E-2
1.882790677E1,-2.832409739E-2,4.405510426E-2,-2.262115479E-2
1.884389798E1,6.296493113E-3,5.811399221E-2,3.736972809E-2
1.885988919E1,1.404613256E-2,4.001912475E-2,-2.709484100E-2
1.887584988E1,-2.251647413E-3,3.114148974E-2,-1.059064865E-1
1.889181058E1,7.564261556E-3,3.753641248E-2,-3.871631622E-2
1.890774075E1,4.665203393E-3,1.777639985E-2,-7.688522339E-2
1.892364041E1,9.212180972E-3,4.655000567E-2,-1.174764633E-1
1.893960110E1,9.318284690E-3,5.259019136E-2,-3.122901917E-2
1.895550076E1,-3.724177927E-2,5.762395263E-2,7.899665833E-2
1.897149197E1,-5.024165660E-2,9.352239966E-2,4.809570312E-2
1.898748319E1,-1.764845103E-2,5.608889461E-2,-1.864147186E-2
1.900347440E1,2.204912901E-2,2.437409759E-2,-3.753757477E-2
1.901943509E1,3.775985911E-2,4.496961832E-2,-3.860473633E-3
1.903542630E1,7.899455726E-3,5.294555426E-2,-4.928016663E-2
1.905138699E1,-4.650916159E-2,5.338403583E-2,-1.283283234E-1
1.906737820E1,-3.822130710E-2,4.712018371E-2,-1.500539780E-1
1.908336942E1,1.730434597E-3,1.664391160E-2,-4.977607727E-2
1.909936063E1,3.462715447E-2,7.981508970E-3,5.767631531E-2
1.911532132E1,9.810946882E-3,-6.105184555E-3,9.584522247E-2
1.913125150E1,3.029200062E-2,-1.383504272E-2,1.206493378E-2
1.914721219E1,4.556573927E-3,1.017609239E-2,-7.402896881E-2
1.916317288E1,-1.953946799E-2,2.543783188E-2,-1.146793365E-1
1.917916409E1,-4.109802842E-2,5.918410420E-2,-5.964279175E-2
1.919509427E1,3.468881547E-2,1.648026705E-2,-5.009269714E-2
1.921108548E1,3.557988629E-2,6.264746189E-4,7.311820984E-3
1.922704617E1,-1.188539714E-2,5.301734805E-2,-6.449699402E-2
1.924297635E1,-5.247870833E-2,8.770713210E-2,2.654361725E-2
1.925893704E1,-8.752428740E-2,6.365939975E-2,-6.671905518E-2
1.927486722E1,-4.570081830E-2,2.748420835E-2,-4.744434357E-2
1.929082791E1,1.397898793E-2,-1.243832707E-2,-1.863479614E-2
1.930678860E1,5.366697907E-3,1.522713900E-2,-1.378536224E-2
1.932274930E1,-1.187383384E-2,4.213842750E-2,2.941703796E-2
1.933867947E1,-1.261132210E-2,3.502207994E-2,-6.143283844E-2
1.935464017E1,-1.876813918E-2,-7.467448711E-3,-1.738605499E-1
1.937063138E1,-3.485940397E-3,-2.345550060E-2,-1.379795074E-1
1.938662259E1,-3.023728728E-3,8.030533791E-4,1.511764526E-2
1.940261380E1,-1.787695289E-2,5.942410231E-2,2.089853287E-1
1.941857449E1,-6.122469902E-3,4.780453444E-2,1.301984787E-1
1.943456570E1,-7.943414152E-3,2.131050825E-2,-2.070045471E-1
1.945052640E1,2.092802525E-2,-6.040215492E-3,-2.547121048E-1
1.946651761E1,-2.327902615E-2,2.760481834E-2,-1.231708527E-1
1.948247830E1,-3.094501793E-3,3.193244338E-2,-6.365013123E-2
1.949846951E1,6.503145397E-2,7.953524590E-2,2.496509552E-1
1.951443021E1,5.153128505E-2,4.693561792E-2,1.681900024E-1
1.953042142E1,-4.365687817E-2,1.725465059E-3,-1.691818237E-1
1.954635159E1,-8.730642498E-3,-3.059300780E-2,-3.870019913E-1
1.956225125E1,2.433724701E-2,-2.445262671E-2,-3.106994629E-1
1.957821194E1,2.837711200E-2,2.587947249E-2,-2.446174622E-3
1.959414212E1,-6.259799004E-3,4.969155788E-2,3.634023666E-1
1.961013333E1,-2.589841187E-2,5.577856302E-2,3.658447266E-1
1.962609402E1,-3.446906805E-3,8.010730147E-2,7.910823822E-2
1.964199368E1,-4.014745355E-4,4.446586967E-2,-2.697381973E-1
1.965795438E1,-1.249594986E-2,3.928923607E-2,-3.555450439E-1
1.967391507E1,-4.490108788E-2,3.063857555E-2,-1.616735458E-1
1.968990628E1,-1.485712081E-2,-1.448675990E-2,1.014194489E-1
1.970586697E1,1.874934509E-2,-5.466935039E-2,8.690738678E-2
1.972176663E1,-2.900883555E-4,-4.121404886E-2,-2.318000793E-2
1.973772732E1,-5.337618291E-2,4.243582487E-3,-6.376171112E-2
1.975365750E1,-1.030579954E-2,4.145926237E-2,-5.652427673E-2
1.976964871E1,-1.955568045E-2,7.539477944E-2,1.061630249E-2
1.978563992E1,-3.897525370E-3,5.489820242E-2,2.745532990E-2
1.980163113E1,2.366970479E-2,1.861637831E-2,-8.307456970E-3
1.981762234E1,1.706521213E-2,8.128941059E-3,-2.728557587E-2
1.983361356E1,-3.341361880E-3,1.747870445E-2,-1.468505859E-1
1.984957425E1,3.511421382E-2,-4.643142223E-3,-1.396360397E-1
1.986556546E1,-5.014130473E-2,-2.959030867E-2,-1.373262405E-1
1.988155667E1,-3.585591912E-4,1.094555855E-2,8.042716980E-2
1.989754788E1,5.454033613E-2,3.133654594E-2,2.097721100E-1
1.991353909E1,2.567841113E-2,6.035912037E-2,6.169033051E-2
1.992953030E1,-3.838456422E-2,4.402339458E-2,-1.892118454E-1
1.994555203E1,-2.417095006E-3,3.850632906E-2,-2.487697601E-1
1.996154324E1,-1.620718092E-2,3.372055292E-2,-1.003437042E-1
1.997750394E1,-1.409821957E-2,2.624511719E-2,7.429981232E-2
1.999346463E1,3.211820498E-2,1.211851835E-2,1.532821655E-1
2.000945584E1,4.379408062E-2,-3.451466560E-3,5.291748047E-2
2.002544705E1,8.715763688E-4,-5.875170231E-3,-1.144132614E-1
2.004140774E1,-4.412580281E-2,-6.065249443E-3,-1.717290878E-1
2.005739896E1,-6.112881005E-3,2.140188217E-2,-6.644821167E-2
2.007335965E1,7.151879370E-3,3.345382214E-2,3.157138824E-2
2.008932034E1,6.484493613E-3,3.960919380E-2,4.106903076E-2
2.010531155E1,-7.801853120E-3,3.673368692E-2,-1.157760620E-2
2.012124173E1,-2.670952678E-2,1.927924156E-2,-1.001234055E-1
2.013720242E1,-2.425679564E-2,1.101922989E-2,-1.361083984E-1
2.015316312E1,9.057134390E-3,2.218878269E-2,-7.039070129E-3
2.016915433E1,3.274746239E-3,5.989581347E-2,1.411695480E-1
2.018511502E1,-4.315192252E-2,6.373178959E-2,-5.523872375E-2
2.020101468E1,-2.689129859E-2,3.286403418E-2,-1.222934723E-1
2.021697537E1,1.000194624E-2,3.529644012E-2,-1.367979050E-1
2.023293607E1,-1.777108014E-2,1.656985283E-2,-1.322956085E-1
2.024889676E1,1.558305696E-2,2.503132820E-2,1.593561172E-1
2.026488797E1,3.171834722E-2,3.431138396E-2,1.757564545E-1
2.028081815E1,1.682205126E-2,3.343343735E-2,-6.148719788E-2
2.029677884E1,-2.001354471E-2,1.065665483E-2,-1.958827972E-1
2.031273953E1,-1.023747772E-2,-1.821547747E-3,-2.754697800E-1
2.032870023E1,4.695998877E-2,4.712730646E-3,-2.308673859E-1
2.034469144E1,-1.227788627E-3,2.802878618E-3,-5.231380463E-2
2.036065213E1,-4.708837718E-2,9.667694569E-3,2.963113785E-1
2.037661282E1,-2.549378201E-2,1.751866937E-2,4.130992889E-1
2.039263455E1,3.755251318E-2,4.853087664E-2,8.500385284E-2
2.040859524E1,2.339020371E-3,5.652633309E-2,-2.596912384E-1
2.042458646E1,-3.101448342E-2,5.078575015E-2,-3.484334946E-1
2.044057767E1,-2.391753346E-2,1.322525740E-2,-1.837434769E-1
2.045656888E1,-9.651791304E-3,-3.169178963E-2,-9.636878967E-3
2.047256009E1,2.271790057E-3,-4.028347135E-2,1.046323776E-1
2.048855130E1,2.299327403E-3,-2.584537864E-2,8.736515045E-2
2.050451199E1,-2.138458192E-3,-1.064047217E-2,6.786155701E-2
2.052044217E1,7.386166602E-3,8.613318205E-3,-1.378154755E-2
2.053640286E1,-9.105455130E-3,2.964636683E-2,-8.582115173E-2
2.055233304E1,-3.790590912E-3,4.065015912E-2,-7.172393799E-2
2.056832425E1,9.688511491E-4,1.031792164E-2,-6.246280670E-2
2.058431546E1,1.272669062E-2,7.113993168E-3,-1.730346680E-2
2.060027615E1,4.398423061E-2,-1.295873523E-2,-8.554458618E-4
2.061617581E1,4.927154630E-3,-2.679802477E-2,-6.098842621E-2
2.063213651E1,-1.754414290E-2,-7.403820753E-3,-1.258945465E-1
2.064812772E1,-1.527789980E-3,3.276249766E-2,7.066726685E-4
2.066411893E1,2.014815062E-2,3.180594742E-2,1.081829071E-1
2.068011014E1,3.311146796E-2,6.003630161E-2,2.657794952E-2
2.069610135E1,1.212218031E-2,1.898571849E-3,-1.148729324E-1
2.071206204E1,-2.534735948E-3,-7.608041167E-3,-1.438570023E-1
2.072799222E1,-2.724064887E-2,-1.532433927E-2,-1.010818481E-1
2.074398343E1,7.766187191E-3,4.842579365E-4,-1.761245728E-2
2.076000516E1,1.160609722E-2,-1.582813263E-2,7.308864594E-2
2.077590482E1,6.158206612E-3,-1.916388422E-2,1.064100266E-1
2.079186551E1,-5.640227720E-2,1.998029649E-3,2.009677887E-2
2.080785672E1,-1.769018173E-2,-2.228111029E-2,-1.589965820E-2
2.082381741E1,-2.207905054E-2,-1.548801363E-2,-2.794742584E-2
2.083980862E1,-2.809852362E-3,-2.450633794E-2,-7.352256775E-2
2.085576932E1,-8.760914207E-4,-1.196323335E-2,-1.550292969E-1
2.087176053E1,-8.714836091E-3,-2.760887146E-4,-1.264266968E-1
2.088772122E1,2.979952842E-3,-2.552490681E-3,-8.105945587E-2
2.090371243E1,3.210738301E-3,-4.288233817E-3,5.770969391E-2
2.091970364E1,-1.642332971E-2,1.919263974E-2,2.013053894E-1
2.093563382E1,-5.550421774E-4,2.434043586E-2,1.079063416E-1
2.095162503E1,3.426533192E-3,-5.704108626E-4,-9.561347961E-2
2.096758572E1,-2.442741394E-2,-3.881563433E-3,-1.961889267E-1
2.098354642E1,-1.563894004E-2,1.464765053E-3,-3.111238480E-1
2.099953763E1,3.508975729E-2,-3.244379908E-2,-1.028051376E-1
2.101552884E1,8.460172266E-2,-1.698280871E-2,2.085571289E-1
2.103152005E1,1.087482274E-2,-3.365817294E-2,1.918296814E-1
2.104745023E1,-4.681883752E-2,-6.237787008E-2,1.948738098E-2
2.106344144E1,3.009110503E-2,-4.966475070E-2,-2.438240051E-1
2.107943265E1,3.175452352E-2,-2.176927030E-2,-3.298931122E-1
2.109542386E1,-1.529542729E-2,1.767589897E-2,-8.786678314E-2
2.111138455E1,-3.434460238E-2,3.516321629E-2,3.242149353E-1
2.112728421E1,-1.696297899E-2,3.789155185E-2,3.531589508E-1
2.114327542E1,2.147861384E-2,2.481943369E-2,1.088237762E-2
2.115923611E1,1.361969858E-3,-2.138806880E-2,-2.428426743E-1
2.117522732E1,-4.738478363E-2,-4.102176428E-2,-2.929735184E-1
2.119118802E1,-2.164893970E-2,-5.657561123E-2,-1.107387543E-1
2.120717923E1,6.478272378E-3,-4.884204268E-2,1.026802063E-1
2.122310941E1,3.702679276E-2,-5.118228495E-2,1.484737396E-1
2.123903958E1,3.678193316E-2,-4.699955881E-2,1.343078613E-1
2.125503079E1,-7.148586214E-3,-2.613043785E-2,-1.720037460E-1
2.127099149E1,-5.145214871E-2,-1.724898815E-2,-1.526422501E-1
2.128689114E1,-3.745793179E-2,-4.451394081E-3,-5.176639557E-2
2.130288236E1,1.304309070E-2,3.556579351E-3,5.391693115E-2
2.131881253E1,-2.289477736E-3,-2.504751086E-2,1.882553101E-1
2.133483426E1,1.657896861E-2,-3.172668815E-2,-7.922172546E-3
2.135079495E1,4.027151316E-2,-5.529686809E-2,-2.974720001E-1
2.136678616E1,-3.233476356E-2,-4.947951436E-2,-1.487207413E-1
2.138280789E1,-1.585698128E-2,8.164644241E-4,2.649974823E-2
2.139879910E1,-3.919377923E-4,3.891316056E-2,8.442115784E-2
2.141479031E1,1.684839278E-2,2.179244161E-2,6.565952301E-2
2.143078152E1,8.301235735E-3,2.551853657E-3,-5.612087250E-2
2.144674222E1,-2.067549154E-2,-5.563676357E-3,-1.323490143E-1
2.146273343E1,-7.804796100E-3,-1.996487379E-2,-7.196807861E-2
2.147872464E1,-1.208178699E-3,-2.788174152E-2,-1.918792725E-3
2.149471585E1,8.303595707E-3,-3.039035201E-2,4.893112183E-2
2.151067654E1,-1.296546683E-2,-5.545234680E-2,5.177593231E-2
2.152657620E1,-7.771752775E-3,-6.382387877E-2,-3.405857086E-2
2.154256741E1,-1.444746926E-2,-4.880693555E-2,-7.441902161E-2
2.155849759E1,-1.192096062E-2,-3.695452213E-2,-1.075210571E-1
2.157448880E1,-1.297602616E-2,-1.091066003E-2,-8.305358887E-2
2.159048001E1,-7.479680702E-3,-1.444223523E-2,-8.223533630E-3
2.160647122E1,-1.270001009E-2,-2.320262790E-2,4.027080536E-2
2.162243192E1,-1.161369868E-2,-1.213416457E-2,4.081630707E-2
2.163839261E1,-2.450695820E-2,-1.966613531E-2,-2.814960480E-2
2.165429227E1,-2.020706795E-2,-1.532810926E-2,-1.497879028E-1
2.167022244E1,-1.579903997E-2,-1.227569580E-2,-2.065992355E-1
2.168621365E1,4.159512743E-2,-5.627870560E-4,-3.333854675E-2
2.170220486E1,1.739062741E-2,-1.542985439E-3,2.428665161E-1
2.171819608E1,-3.448641300E-2,-1.223421097E-2,2.385578156E-1
2.173418729E1,-4.361919314E-2,-7.578253746E-3,-7.016372681E-2
2.175017850E1,-3.513494879E-2,-2.334386110E-2,-2.902383804E-1
2.176613919E1,-3.292932734E-2,-2.108216286E-4,-3.183259964E-1
2.178213040E1,6.143487245E-2,-2.041018009E-2,-1.806364059E-1
2.179806058E1,6.531704962E-2,-3.474533558E-2,3.164529800E-1
2.181408231E1,1.266615652E-2,-6.709557772E-2,3.102655411E-1
2.183001248E1,-8.385069668E-2,-6.822973490E-2,5.431270599E-2
2.184600369E1,-2.136261016E-2,-6.481701136E-2,-3.670072556E-1
2.186193387E1,6.761024892E-2,-5.767703056E-3,-4.047374725E-1
2.187786404E1,1.781914569E-2,1.088744402E-2,-3.953456879E-2
2.189385526E1,-4.357544333E-2,2.110540867E-2,3.945188522E-1
2.190981595E1,-5.990452319E-2,8.365392685E-3,3.453578949E-1
2.192577664E1,1.036211662E-2,3.478759527E-2,-9.149551392E-3
2.194173734E1,-3.417387232E-2,2.063739300E-2,-2.750625610E-1
2.195766751E1,-1.881778613E-2,-1.091361046E-3,-2.603721619E-1
2.197368924E1,1.405131258E-2,-3.557902575E-2,-6.086826324E-2
2.198961942E1,-1.982879639E-2,-5.434417725E-2,1.004409790E-1
2.200558011E1,-8.329935372E-4,-8.606106043E-2,7.716178894E-2
2.202151028E1,-6.080667488E-3,-7.107383013E-2,1.531410217E-2
2.203740994E1,4.737596028E-4,-6.070911884E-3,-3.954696655E-2
2.205337064E1,-2.618735656E-3,1.502650976E-2,-5.137252808E-2
2.206933133E1,-1.961189322E-2,7.843196392E-3,-4.879856110E-2
2.208532254E1,-2.402736805E-3,1.568794250E-3,2.088356018E-2
2.210134427E1,-4.349778406E-3,-2.951967716E-2,7.134628296E-2
2.211730496E1,2.471439540E-2,-3.375566006E-2,5.463027954E-2
2.213320462E1,4.462419450E-2,-1.374179125E-2,-3.738660812E-1
2.214913480E1,-2.228181437E-2,-8.837282658E-3,-2.174987793E-1
2.216512601E1,-2.342911623E-2,1.284170151E-2,1.044530869E-1
2.218108670E1,1.816408709E-2,-8.871495724E-3,1.700315475E-1
2.219707791E1,6.758715026E-4,-1.594567299E-2,1.584529877E-1
2.221300809E1,7.616681047E-3,-6.052851677E-4,-1.622924805E-1
2.222902982E1,-1.248409599E-2,2.947449684E-4,-1.859683990E-1
2.224499051E1,-4.582131281E-3,3.756159544E-2,-8.232498169E-2
2.226098172E1,1.086825319E-2,2.415782213E-2,4.782962799E-2
2.227697293E1,1.533701457E-2,-5.387985706E-2,1.107568741E-1
2.229296414E1,-2.308614738E-2,-7.793492079E-2,-2.771377563E-2
2.230895535E1,-3.516678885E-2,-4.997593164E-2,-9.680747986E-2
2.232488553E1,5.590869579E-3,-2.483934164E-2,-1.154537201E-1
2.234084622E1,-6.673194468E-3,-3.624153137E-2,-3.578090668E-2
2.235680692E1,2.401453443E-3,-2.002799511E-2,8.928966522E-2
2.237279813E1,2.037478844E-3,-3.832471371E-2,3.450584412E-2
2.238875882E1,-6.960230879E-3,-1.579767466E-2,-3.005218506E-2
2.240471951E1,-2.449855581E-2,3.588199615E-5,-8.977985382E-2
2.242071072E1,-2.006803267E-2,-1.872676611E-2,-3.686332703E-2
2.243670194E1,-6.943772547E-3,-2.004116774E-2,-4.613494873E-2
2.245269315E1,-2.405609004E-3,-2.354103327E-2,-5.778121948E-2
2.246865384E1,-2.216360997E-3,-1.421666145E-2,-8.611011505E-2
2.248458402E1,-4.600424785E-3,1.234906912E-2,7.235240936E-2
2.250057523E1,-1.267379522E-2,5.627393723E-3,1.420402527E-1
2.251656644E1,-2.631506696E-2,-5.301594734E-3,-5.679988861E-2
2.253258816E1,-1.603533514E-2,-5.864560604E-3,-1.837434769E-1
2.254854886E1,-5.026401579E-2,-2.695697546E-2,-1.212387085E-1
2.256450955E1,3.465476632E-2,-1.143664122E-2,-2.787208557E-1
2.258043973E1,7.158715278E-2,-2.064067125E-2,1.818695068E-1
2.259636990E1,-4.142369609E-3,-7.975548506E-2,3.880567551E-1
2.261236111E1,2.870459575E-4,-9.325200319E-2,8.080577850E-2
2.262829129E1,-6.232155114E-2,-5.608081818E-2,-3.654813766E-1
2.264425198E1,2.349526063E-2,1.945000887E-2,-5.283851624E-1
2.266018216E1,-8.031760342E-3,4.001897573E-2,-9.404373169E-2
2.267614285E1,-3.170626611E-2,1.566165686E-2,4.097919464E-1
2.269207303E1,-2.796716243E-2,-1.832425594E-3,4.983100891E-1
2.270800320E1,-2.005543187E-2,2.639657259E-2,-3.673267365E-2
2.272396390E1,-2.167067491E-2,6.048977375E-2,-3.705511093E-1
2.273995511E1,-3.174100816E-2,4.699575901E-2,-3.275918961E-1
2.275594632E1,1.617665403E-4,-3.011775017E-2,-1.574707031E-2
2.277193753E1,-3.010488581E-3,-9.550416470E-2,2.242546082E-1
2.278792874E1,-2.151022479E-2,-1.279925704E-1,1.355457306E-1
2.280388944E1,-2.240077034E-2,-6.614518166E-2,-8.789062500E-3
2.281988065E1,-8.815275505E-3,-4.243016243E-3,-9.347057343E-2
2.283584134E1,-9.527706541E-3,2.078199387E-2,-1.157665253E-1
2.285186307E1,-3.207066283E-2,1.437419653E-2,-5.647182465E-2
2.286785428E1,1.160687860E-2,-1.484620571E-2,5.080986023E-2
2.288384549E1,1.984497532E-3,-3.435641527E-2,1.004400253E-1
2.289980618E1,-1.796065085E-2,-2.351790667E-2,-4.412555695E-2
2.291576688E1,2.247555181E-2,1.043802500E-2,-2.627649307E-1
2.293169705E1,-8.997526951E-3,-6.605863571E-3,-8.362293243E-2
2.294771878E1,-1.110559609E-2,-1.140350103E-2,6.202507019E-2
2.296367947E1,-5.722350441E-3,-1.742362976E-2,9.006404877E-2
2.297967069E1,-2.877688967E-2,3.500235081E-2,6.034278870E-2
2.299563138E1,1.353044994E-3,3.000110388E-2,-3.658676147E-2
2.301165311E1,2.855919115E-2,3.843301535E-2,-1.621112823E-1
2.302761380E1,-2.460262738E-2,7.354915142E-3,-8.383846283E-2
2.304360501E1,-5.624397658E-3,-4.505693913E-3,7.363891602E-2
2.305953519E1,-8.911397308E-3,-3.037142754E-2,7.055854797E-2
2.307543484E1,-2.383325994E-2,-5.913376808E-2,5.023002625E-3
2.309139554E1,-2.467615530E-2,-5.352324247E-2,-8.694553375E-2
2.310732571E1,-4.209288955E-2,-1.897704601E-2,-1.190233231E-1
2.312328641E1,-1.442833431E-2,-1.937156916E-2,-8.397960663E-2
2.313921658E1,-1.368895080E-2,-1.013475657E-2,3.966999054E-2
2.315514676E1,4.223193973E-3,-2.147370577E-2,3.395271301E-2
2.317110745E1,2.247332409E-2,-4.997849464E-3,-1.984691620E-2
2.318706815E1,-1.784440130E-3,2.604901791E-3,-5.456638336E-2
2.320302884E1,-1.163903624E-2,2.732443810E-2,-3.655719757E-2
2.321898953E1,-1.698638871E-2,2.966684103E-2,-5.911922455E-2
2.323491971E1,-2.039338648E-2,5.055141449E-2,2.245903015E-3
2.325091092E1,-1.424297504E-2,2.993988991E-2,-1.014747620E-1
2.326684110E1,-2.294841036E-2,1.708906889E-2,-4.473400116E-2
2.328280179E1,2.291780896E-2,-1.336902380E-2,2.394771576E-2
2.329873196E1,1.585085876E-2,-3.333383799E-2,2.313899994E-2
2.331466214E1,-7.630724460E-3,-3.145593405E-2,3.900718689E-2
2.333062283E1,-2.312594466E-2,-1.968175173E-2,3.325748444E-2
2.334658353E1,-1.362752914E-2,-1.405090094E-3,-2.994346619E-2
2.336257474E1,-2.306957170E-2,2.457270026E-2,-5.477142334E-2
2.337853543E1,-4.469010979E-3,2.138710022E-2,-1.177845001E-1
2.339443509E1,-3.667813167E-2,4.081040621E-3,-1.471395493E-1
2.341042630E1,-7.129658014E-3,-6.360113621E-4,-1.284694672E-1
2.342632596E1,-3.940194845E-3,-1.104256511E-2,3.871536255E-2
2.344228665E1,-1.236956567E-2,6.806999445E-3,1.603116989E-1
2.345821683E1,-4.034872353E-2,5.273759365E-3,7.344818115E-2
2.347417752E1,-4.050005227E-3,2.458611131E-2,-1.044664383E-1
2.349013821E1,-2.399668470E-2,2.405020595E-2,-1.242685318E-1
2.350609891E1,-6.122618169E-2,2.754139900E-2,-2.875633240E-1
2.352209012E1,2.102517523E-2,2.213877439E-2,-6.752586365E-2
2.353802029E1,5.449530482E-2,3.063756227E-2,3.321437836E-1
2.355398099E1,9.918218479E-3,-1.157930493E-2,2.312030792E-1
2.356991116E1,-8.329388499E-2,-1.659154892E-2,-2.338018417E-1
2.358584134E1,-1.284305751E-2,-1.668383181E-2,-5.837154388E-1
2.360183255E1,1.188358106E-2,1.881073415E-2,-3.874559402E-1
2.361779324E1,-2.345334738E-3,3.356912732E-2,2.806015015E-1
2.363378445E1,-2.709124237E-3,3.983868659E-2,6.850948334E-1
2.364977566E1,1.831064560E-2,5.417187512E-2,3.733253479E-1
2.366576688E1,-2.886773646E-2,7.306203991E-2,-1.253147125E-1
2.368172757E1,-4.602892697E-2,3.828457743E-2,-3.795785904E-1
2.369771878E1,-5.384346098E-2,6.204398721E-2,-3.319568634E-1
2.371367947E1,-1.368916407E-2,1.824197173E-2,-9.984397888E-2
2.372970120E1,-8.626513183E-3,-1.052822918E-2,4.133605957E-2
2.374563138E1,1.829638146E-2,-2.945295721E-2,8.194446564E-2
2.376162259E1,6.947413087E-3,-2.829536796E-2,4.591560364E-2
2.377761380E1,-1.177554950E-2,-5.374997854E-4,-2.841949463E-2
2.379360501E1,-4.201715067E-2,3.682762012E-2,-9.554481506E-2
2.380956570E1,-1.662968472E-2,5.920664966E-2,-5.968761444E-2
2.382555692E1,1.110357791E-2,6.082242727E-2,3.365230560E-2
2.384151761E1,-2.696411684E-2,3.735216707E-2,4.897117615E-3
2.385750882E1,-2.926567942E-2,1.641828939E-2,-7.411766052E-2
2.387350003E1,1.962017640E-2,1.395385712E-3,-7.649421692E-2
2.388949124E1,-8.433498442E-4,5.021814257E-3,-1.219577789E-1
2.390548245E1,-3.597937897E-2,2.530978248E-2,-1.171388626E-1
2.392138211E1,-2.132290974E-2,2.989249676E-2,2.175617218E-2
2.393737332E1,-2.380944043E-2,6.426648051E-2,5.292034149E-2
2.395333402E1,-2.139307559E-2,6.038437411E-2,-2.363014221E-2
2.396932523E1,-5.044665188E-3,5.552358925E-2,-5.467414856E-2
2.398531644E1,2.285865694E-2,4.885094613E-2,-1.148891449E-2
2.400124661E1,2.509973943E-3,2.854609489E-2,-1.379013062E-2
2.401723782E1,-1.017645001E-2,2.502095699E-2,-2.325916290E-2
2.403316800E1,-2.466053888E-2,1.169430465E-2,-5.665397644E-2
2.404915921E1,-6.517067552E-2,1.287743449E-3,-7.567596436E-2
2.406511990E1,-3.864801675E-2,8.862957358E-3,-5.639648438E-2
2.408111111E1,-2.906759083E-2,1.942808926E-2,-4.669666290E-2
2.409704129E1,-1.003178582E-2,3.224359453E-2,-5.862236023E-3
2.411294095E1,-3.162279725E-3,2.071353793E-2,-2.247524261E-2
2.412890164E1,-1.770254225E-2,3.540945053E-2,-4.147052765E-2
2.414486234E1,-1.074023172E-2,2.413566411E-2,-4.131031036E-2
2.416082303E1,-2.087702230E-2,5.649261177E-2,-2.918434143E-2
2.417675320E1,-2.580390498E-2,3.647314012E-2,-7.212066650E-2
2.419265286E1,1.252141967E-2,3.861355782E-2,1.182937622E-2
2.420861356E1,3.058645874E-3,4.323682189E-2,-8.138751984E-2
2.422454373E1,4.770904779E-4,4.487682879E-2,2.892112732E-2
2.424053494E1,-7.241070271E-3,3.145231307E-2,-1.397895813E-2
2.425652615E1,-1.985218376E-2,3.892982006E-2,1.736450195E-2
2.427251736E1,-2.986788005E-2,2.465343475E-2,-2.789211273E-2
2.428850858E1,-1.580186188E-3,4.688471556E-2,-5.160617828E-2
2.430449979E1,-1.627991721E-2,5.077251792E-2,-7.054615021E-2
2.432046048E1,-2.889987826E-2,2.926766872E-2,-4.162216187E-2
2.433645169E1,-9.963382035E-3,7.871598005E-3,-1.748371124E-2
2.435241238E1,-2.436449379E-2,3.149867058E-2,-2.444934845E-2
2.436843411E1,-1.721551642E-2,2.842205763E-2,-2.182197571E-2
2.438439481E1,-4.269294441E-4,2.293202281E-2,-5.031204224E-2
2.440035550E1,-1.264704019E-2,3.716027737E-2,-6.445026398E-2
2.441628568E1,-1.514152810E-2,3.338795900E-2,-4.270553589E-2
2.443218533E1,3.949187696E-3,3.479182720E-2,-3.533458710E-2
2.444817654E1,-2.309863269E-2,3.671282530E-2,-8.544158936E-2
2.446413724E1,-2.640527859E-2,3.957867622E-2,-1.092414856E-1
2.448012845E1,-1.240225136E-2,1.509797573E-2,-8.586883545E-3
2.449608914E1,4.385586828E-3,3.528746963E-2,1.519536972E-1
2.451204984E1,-1.125720516E-2,4.932397604E-2,8.039474487E-2
2.452798001E1,-1.210121065E-2,4.374033213E-2,-1.442842484E-1
2.454400174E1,-2.575803548E-2,1.837170124E-2,-2.157907486E-1
2.455996243E1,-7.287514955E-2,2.625814080E-2,-2.228260040E-1
2.457595364E1,-3.897256777E-2,3.690704703E-2,-9.118461609E-2
2.459194486E1,9.085553885E-2,5.839785933E-2,3.612346649E-1
2.460793607E1,6.612214446E-2,5.057579279E-2,2.752351761E-1
2.462392728E1,-5.830267444E-2,1.988717914E-2,-2.510547638E-1
2.463982694E1,-4.598776251E-2,-2.037355304E-2,-5.596399307E-1
2.465581815E1,1.857094653E-2,-1.868262887E-2,-4.424858093E-1
2.467174832E1,-7.605087012E-3,2.726885676E-2,4.304885864E-2
2.468777005E1,-4.659288004E-2,3.198266029E-2,5.167341232E-1
2.470370023E1,-4.332439601E-2,7.111728191E-2,5.073003769E-1
2.471966092E1,2.525193617E-3,8.921340108E-2,6.745147705E-2
2.473559110E1,-1.134713739E-2,1.096217036E-1,-2.744903564E-1
2.475155179E1,-2.456312999E-2,7.171005011E-2,-3.453350067E-1
2.476745145E1,-3.665955737E-2,3.099972010E-2,-2.493600845E-1
2.478341214E1,-3.502971306E-2,-1.502811909E-3,-5.787086487E-2
2.479940335E1,-2.363534458E-2,-1.687353849E-2,5.459499359E-2
2.481539456E1,-1.181250811E-2,9.800791740E-4,6.422805786E-2
2.483138577E1,2.697929740E-3,2.537369728E-2,9.349822998E-3
2.484734647E1,-1.423527673E-2,5.795130134E-2,-5.743694305E-2
2.486333768E1,-5.261557549E-2,4.346790910E-2,-4.764270782E-2
2.487929837E1,-4.324891791E-2,3.677812219E-2,-1.393222809E-2
2.489528958E1,-2.186325192E-2,4.415369034E-2,1.740169525E-2
2.491128079E1,-2.152569965E-2,3.187775612E-2,-5.419063568E-2
2.492730252E1,2.045261301E-2,2.981817722E-2,-1.114416122E-1
2.494326321E1,-2.997597679E-3,2.929756045E-2,-1.208810806E-1
2.495922391E1,1.943983138E-3,1.388630271E-2,-8.970546722E-2
2.497518460E1,1.167040318E-4,3.542497754E-2,-1.118659973E-3
2.499111478E1,-2.855788916E-2,2.753925323E-2,3.722286224E-2
2.500707547E1,-2.399003319E-2,7.467600703E-2,-1.051521301E-2
2.502309720E1,6.386451423E-5,4.624164104E-2,-5.818462372E-2
2.503905789E1,1.180923730E-2,6.858015060E-2,-5.799293518E-2
2.505501859E1,2.282261103E-2,5.117335916E-2,-3.630065918E-2
2.507100980E1,-2.107908949E-3,2.440854907E-2,-2.658939362E-2
2.508700101E1,4.230812192E-3,-4.271894693E-3,-4.802513123E-2
2.510296170E1,-2.766617760E-2,1.765227318E-2,-8.144664764E-2
2.511892239E1,-2.079708688E-2,1.691550016E-2,-5.268192291E-2
2.513491360E1,-1.950144954E-2,1.086953282E-2,-2.149677277E-2
2.515090482E1,-1.755054854E-2,3.572282195E-2,2.516746521E-3
2.516689603E1,-2.016137168E-2,4.484829307E-2,-3.564834595E-2
2.518285672E1,-2.051664516E-2,3.477388620E-2,-2.832317352E-2
2.519884793E1,-2.034089714E-2,4.753804207E-2,-8.570289612E-2
2.521480862E1,-2.033102885E-2,2.994450927E-2,-2.807807922E-2
2.523070828E1,-3.931123018E-2,4.280233383E-2,-1.124191284E-2
2.524666898E1,-2.990005165E-2,1.738360524E-2,-4.468631744E-2
2.526266019E1,-1.806791872E-2,4.930222034E-2,-5.657577515E-2
2.527865140E1,-3.989949822E-2,3.324109316E-2,-5.170154572E-2
2.529461209E1,-2.825709991E-2,3.181672096E-2,-2.050399780E-2
2.531060330E1,1.710152626E-2,2.546882629E-2,-1.084709167E-2
2.532659451E1,-9.057249874E-3,1.635468006E-2,-2.271747589E-2
2.534255521E1,-1.651216298E-3,1.667273045E-2,-6.809806824E-2
2.535851590E1,-1.355724595E-2,3.018200397E-3,-4.646301270E-2
2.537450711E1,-1.146008074E-2,1.844519377E-2,-4.878807068E-2
2.539046780E1,-4.803733900E-3,2.908974886E-2,6.346702576E-3
2.540636746E1,9.986297227E-3,2.508145571E-2,-7.495880127E-4
2.542235867E1,3.186015412E-3,1.346838474E-2,-6.528472900E-2
2.543834988E1,-4.229557514E-2,7.177591324E-3,-1.274547577E-1
2.545434110E1,-1.561346278E-2,5.401253700E-3,-1.562175751E-1
2.547030179E1,6.170518696E-3,1.286292076E-2,-1.509952545E-2
2.548629300E1,8.068082854E-3,3.862148523E-2,1.500034332E-1
2.550222318E1,-2.310107462E-2,4.536730051E-2,5.677890778E-2
2.551821439E1,-2.959803306E-2,4.741245508E-2,-1.680021286E-1
2.553417508E1,-1.919067651E-2,1.317650080E-2,-1.798048019E-1
2.555016629E1,-5.127421767E-2,2.142769098E-2,-1.247968674E-1
2.556615750E1,-4.291739687E-2,2.091127634E-2,-4.601383209E-2
2.558211820E1,4.942754656E-2,6.634318829E-2,2.793521881E-1
2.559807889E1,3.711950779E-2,4.804807901E-2,1.477432251E-1
2.561410062E1,-4.642774910E-2,1.456600428E-2,-2.231101990E-1
2.563003079E1,-2.260360867E-2,-2.379131317E-2,-3.811254501E-1
2.564599149E1,9.067441337E-3,-8.937478065E-3,-2.833671570E-1
2.566192166E1,-6.326572970E-3,3.122150898E-3,8.710575104E-2
2.567791287E1,-4.351324961E-2,1.897871494E-2,3.524188995E-1
2.569390408E1,-1.733852737E-2,6.357830763E-2,3.285207748E-1
2.570989529E1,4.837585613E-3,6.957942247E-2,8.248329163E-3
2.572588651E1,-1.652549766E-2,7.211959362E-2,-2.688608170E-1
2.574184720E1,-3.130418807E-2,3.501480818E-2,-2.996702194E-1
2.575783841E1,-3.570714965E-3,-1.371276379E-2,-1.106128693E-1
2.577382962E1,-6.685975939E-3,-4.096060991E-2,7.113933563E-2
2.578982083E1,-2.349744551E-2,-2.968657017E-2,8.780956268E-2
2.580581204E1,-3.034202009E-2,1.920539141E-2,8.873939514E-3
2.582177274E1,-3.058149107E-2,4.265159369E-2,-5.082893372E-2
2.583773343E1,-2.119649202E-2,6.948876381E-2,-7.227516174E-2
2.585366360E1,-2.576182224E-2,4.550892115E-2,-1.960086823E-2
2.586962430E1,-1.185799018E-3,2.934241295E-2,1.916885376E-3
2.588558499E1,-7.752802223E-3,-4.781484604E-3,-2.917480469E-2
2.590157620E1,-2.406935208E-2,-3.576874733E-3,-1.953315735E-2
2.591756741E1,2.722229436E-2,4.018664360E-3,-1.127986908E-1
2.593355862E1,-2.284898981E-2,2.988612652E-2,-6.010055542E-2
2.594954984E1,-1.544426568E-2,2.305930853E-2,-2.659988403E-2
2.596551053E1,-4.909614101E-3,3.777623177E-2,-2.661705017E-2
2.598147122E1,-9.302763268E-3,5.180877447E-2,4.526138306E-3
2.599746243E1,5.277656019E-4,4.332542419E-2,-4.980087280E-3
2.601345364E1,-4.242619500E-3,1.524943113E-2,-3.840446472E-2
2.602944486E1,2.557512373E-3,1.187342405E-2,-3.356456757E-2
2.604540555E1,-1.036407240E-2,1.114547253E-2,1.196193695E-2
2.606139676E1,-1.161114499E-2,9.411573410E-5,2.161693573E-2
2.607738797E1,-3.159116954E-2,-8.958756924E-3,-5.010986328E-2
2.609334866E1,-2.478542738E-2,1.631742716E-2,-9.793663025E-2
2.610933987E1,-2.254873887E-2,1.913541555E-2,-7.880783081E-2
2.612533109E1,3.785833716E-3,1.350694895E-2,9.694099426E-3
2.614129178E1,-8.090952411E-3,-2.450585365E-3,7.256507874E-3
2.615725247E1,-2.723204717E-2,9.107530117E-3,-1.187515259E-2
2.617324368E1,-2.746185474E-2,-6.595730782E-3,-6.926345825E-2
2.618923489E1,-1.301709749E-2,2.804899216E-2,-4.550933838E-3
2.620522610E1,-1.314150915E-2,4.406303167E-2,-1.002779007E-1
2.622118680E1,-2.311551198E-2,3.462433815E-2,-4.518508911E-3
2.623717801E1,-8.991736919E-3,4.247069359E-2,-7.159233093E-2
2.625313870E1,-9.030904621E-3,2.111005783E-2,1.698303223E-2
2.626906888E1,-1.606478356E-2,2.797919512E-2,-4.548072815E-3
2.628502957E1,-6.331102923E-3,1.748430729E-2,1.226139069E-2
2.630095975E1,-6.194973364E-3,2.572196722E-2,-6.818771362E-3
2.631695096E1,-1.537087373E-2,1.694369316E-2,-2.827739716E-2
2.633294217E1,-1.527314447E-2,1.375252008E-2,-9.527015686E-2
2.634893338E1,-1.307597570E-2,-1.772582531E-3,-1.120996475E-1
2.636492459E1,-8.015051484E-3,-1.030212641E-2,-4.285430908E-2
2.638088528E1,1.585431769E-2,1.213729382E-2,6.949424744E-2
2.639687650E1,-1.324337721E-2,2.970182896E-2,1.005735397E-1
2.641286771E1,-3.718575090E-2,1.031035185E-2,-5.011749268E-2
2.642882840E1,-1.039887220E-2,1.456338167E-2,-1.768493652E-1
2.644469754E1,-3.244759887E-2,1.897644997E-2,-9.303379059E-2
2.646068875E1,-3.093587980E-2,-2.056956291E-3,-1.099529266E-1
2.647667996E1,2.263341285E-2,1.738548279E-2,1.363763809E-1
2.649267117E1,5.015782267E-2,5.105346441E-2,2.200336456E-1
2.650866238E1,-2.499681152E-2,4.352325201E-2,-2.882194519E-2
2.652465360E1,-5.220337212E-2,1.167774200E-3,-3.064603806E-1
2.654064481E1,2.207703516E-2,-2.577346563E-2,-3.042926788E-1
2.655660550E1,1.050479896E-2,-2.498769760E-2,-1.157007217E-1
2.657256619E1,-4.779861495E-2,1.018738747E-2,1.805934906E-1
2.658849637E1,-5.105564743E-2,4.457423091E-2,3.311376572E-1
2.660445706E1,3.653335385E-3,6.559675932E-2,1.924228668E-1
2.662038724E1,8.197654970E-3,8.845078945E-2,-1.040315628E-1
2.663637845E1,-2.059722878E-2,6.150931120E-2,-2.928915024E-1
2.665233914E1,-4.197073169E-3,1.316308975E-3,-1.828660965E-1
2.666833035E1,-1.144632138E-2,-3.106895089E-2,1.063060760E-2
2.668432156E1,-2.538301051E-2,-7.488563657E-2,6.285190582E-2
2.670031278E1,-1.342291571E-2,-4.459315538E-2,5.295562744E-2
2.671627347E1,-9.109184146E-3,-6.721794605E-3,7.247924805E-3
2.673223416E1,-9.975843132E-3,2.579841018E-2,-4.321861267E-2
2.674822537E1,-8.469192311E-3,4.481911659E-2,-4.823589325E-2
2.676418607E1,-1.496188343E-3,4.069635272E-2,1.777648926E-3
2.678017728E1,1.346225664E-2,2.398827672E-2,3.267192841E-2
2.679613797E1,-3.177458793E-2,1.594069600E-2,7.558155060E-2
2.681212918E1,-2.547451109E-2,2.438801527E-2,-9.936618805E-2
2.682812039E1,5.114899948E-3,1.057535410E-2,-2.025632858E-1
2.684414212E1,-3.297042847E-2,1.356306672E-2,-1.575384140E-1
2.686007230E1,-3.792096674E-2,1.700058579E-2,-4.891395569E-3
2.687606351E1,1.517931186E-2,4.103845358E-2,1.502103806E-1
2.689202420E1,2.018877119E-2,3.403055668E-2,1.427164078E-1
2.690795438E1,-6.333837286E-3,2.801766992E-2,1.088619232E-2
2.692391507E1,-6.782486103E-3,4.125234485E-2,-1.233425140E-1
2.693984524E1,-8.211148903E-3,8.133500814E-3,-1.068935394E-1
2.695583646E1,7.256126963E-3,1.259446144E-4,-5.227375031E-2
2.697179715E1,-5.203642882E-3,-9.315311909E-3,2.626514435E-2
2.698778836E1,-2.371309325E-3,-2.912744880E-2,3.302478790E-2
2.700377957E1,-1.772945747E-2,-1.654598117E-2,-2.001762390E-2
2.701974027E1,-1.647452265E-2,-2.270904183E-2,-6.348609924E-2
2.703570096E1,-2.062777057E-2,-3.920406103E-3,-6.867027283E-2
2.705169217E1,-6.262587383E-3,-3.722310066E-3,-1.400470734E-2
2.706765286E1,-4.385361448E-3,1.735708117E-2,2.154159546E-2
2.708361356E1,-2.392765507E-2,-6.031930447E-3,9.259223938E-3
2.709954373E1,-3.830460086E-2,8.629560471E-4,-2.932453156E-2
2.711553494E1,-2.771073207E-2,1.978391409E-2,3.928184509E-3
2.713149564E1,-2.115813643E-2,1.759916544E-2,1.263618469E-3
2.714745633E1,2.173855901E-4,1.802140474E-2,8.183479309E-3
2.716335599E1,1.443712600E-2,6.826281548E-3,-7.108688354E-2
2.717928616E1,1.392646879E-2,-6.296128035E-3,-2.107048035E-2
2.719524686E1,-4.932773858E-2,7.856994867E-3,-5.007266998E-2
2.721123807E1,-3.567890823E-2,-3.053134680E-2,1.430988312E-2
2.722722928E1,-5.246026441E-3,-9.849637747E-3,1.408004761E-2
2.724318997E1,2.915390022E-2,-4.536832869E-2,-1.154041290E-1
2.725918118E1,-9.673239663E-3,-2.043043077E-2,-7.490539551E-2
2.727514188E1,-1.965541951E-2,-3.191015124E-2,-9.906959534E-2
2.729113309E1,4.219917580E-3,-1.599252224E-2,6.111907959E-2
2.730709378E1,2.102454379E-2,-9.462431073E-3,1.519260406E-1
2.732305447E1,-6.044068560E-2,6.878212094E-3,4.169559479E-2
2.733898465E1,-2.899844386E-2,-1.705197245E-2,-7.329082489E-2
2.735494534E1,-4.321882874E-2,-1.528063416E-2,-1.236553192E-1
2.737093655E1,-3.372782841E-2,7.835596800E-3,-2.243471146E-1
2.738692777E1,5.347383395E-2,6.647579372E-3,-1.072225571E-1
2.740291898E1,8.498573303E-2,-1.340109855E-2,1.799030304E-1
2.741891019E1,-1.117147878E-2,-3.156341612E-2,2.037305832E-1
2.743487088E1,-5.434193462E-2,-6.057053059E-2,-5.729675293E-2
2.745083157E1,-5.801994354E-3,-7.589360327E-2,-2.392959595E-1
2.746679227E1,-6.230166182E-3,-2.261752635E-2,-1.866636276E-1
2.748278348E1,-5.500316247E-2,2.716518193E-2,7.665920258E-2
2.749880521E1,-7.139695436E-2,4.686659202E-2,2.873344421E-1
2.751479642E1,-4.129682481E-2,4.885952175E-2,2.155122757E-1
2.753078763E1,1.370621473E-2,2.360205352E-2,-1.672267914E-2
2.754674832E1,-3.197032958E-3,-8.276307955E-3,-2.274055481E-1
2.756264798E1,-2.493265271E-2,-4.958054796E-2,-2.609043121E-1
2.757857816E1,-4.183292389E-2,-6.257516146E-2,-1.578969955E-1
2.759456937E1,-1.113144122E-2,-8.708171546E-2,4.810142517E-2
2.761053006E1,2.203273959E-2,-6.670077145E-2,1.918630600E-1
2.762652127E1,1.004516147E-2,-4.088114947E-2,2.110919952E-1
2.764251248E1,-4.318153486E-3,-2.215233445E-2,4.112052917E-2
2.765850369E1,-3.355766833E-2,4.577189684E-3,-1.049232483E-1
2.767446439E1,-3.397382051E-2,3.712575138E-2,-1.767139435E-1
2.769045560E1,-2.216557600E-2,2.992849052E-2,-1.215543747E-1
2.770641629E1,-3.265279531E-2,-1.452720165E-2,6.054782867E-2
2.772243802E1,2.004706301E-2,-3.787462413E-2,9.182643890E-2
2.773836820E1,4.069618881E-2,-5.493225157E-2,-6.366825104E-2
2.775432889E1,-9.445350617E-3,-2.208235860E-2,-1.138181686E-1
2.777028958E1,-3.648838773E-2,-2.660110593E-2,3.477191925E-2
2.778628079E1,1.328860782E-2,1.047763228E-2,1.067323685E-1
2.780227200E1,1.680370979E-2,1.505146921E-2,1.020193100E-1
2.781826321E1,-1.190378889E-2,1.060721278E-2,-3.680133820E-2
2.783422391E1,-3.864411637E-2,-8.793637156E-3,-1.612243652E-1
2.785021512E1,-2.809811383E-2,-6.278812885E-3,-7.964420319E-2
2.786620633E1,1.763439551E-2,-2.020530403E-2,4.270267487E-2
2.788222806E1,-8.132425137E-3,-5.242814124E-2,6.208229065E-2
2.789818875E1,-2.013287321E-2,-6.117534637E-2,2.634239197E-2
2.791414945E1,-4.227033257E-2,-6.969726086E-2,-5.493068695E-2
2.793014066E1,-4.053477198E-2,-4.427205026E-2,-6.915283203E-2
2.794610135E1,-3.154847771E-2,-7.756456733E-3,-6.417942047E-2
2.796197049E1,-1.058885548E-2,-5.946129560E-3,-5.198860168E-2
2.797793118E1,-2.078306489E-2,-2.761980891E-2,2.247238159E-2
2.799392239E1,-1.401476283E-2,-2.586102486E-2,3.707408905E-2
2.800991360E1,7.687132340E-3,-1.113042235E-2,1.812553406E-2
2.802590482E1,-3.308803961E-2,-5.908876657E-3,-8.700466156E-2
2.804189603E1,-9.782734327E-3,1.833468676E-3,-1.465673447E-1
2.805788724E1,-5.479482003E-3,-6.385892630E-3,-5.997371674E-2
2.807378690E1,9.327032603E-4,-1.619422436E-2,1.008834839E-1
2.808980862E1,-1.545296330E-2,-2.657401562E-2,1.395578384E-1
2.810573880E1,-1.636552811E-2,-2.870458364E-2,8.131027222E-3
2.812169949E1,-1.839076355E-2,-3.212741017E-2,-7.306003571E-2
2.813762967E1,-1.943662763E-2,-3.377085924E-2,-1.470012665E-1
2.815359036E1,-8.501524106E-3,-2.277991176E-2,-1.059036255E-1
2.816958157E1,2.968293801E-2,-4.084864259E-2,5.978584290E-2
2.818557278E1,-1.536813565E-3,-2.805700898E-2,2.660875320E-1
2.820156400E1,-5.011686310E-2,-6.907254457E-3,1.965808868E-2
2.821752469E1,-2.317705750E-2,-2.405813336E-2,-8.082103729E-2
2.823348538E1,-3.480722010E-2,1.473277807E-2,-1.691951752E-1
2.824941556E1,-3.336551785E-2,-1.213765144E-2,-2.264833450E-1
2.826534573E1,3.056796081E-2,-2.751004696E-2,-9.623527527E-2
2.828130643E1,8.921554685E-2,-3.045225143E-2,3.163881302E-1
2.829723660E1,-2.822469547E-2,-5.623054504E-2,2.881183624E-1
2.831319730E1,-9.424186498E-2,-5.629119277E-2,-9.963226318E-2
2.832912747E1,1.739867404E-2,-5.288818479E-2,-3.939580917E-1
2.834502713E1,4.291181639E-2,-1.908990741E-2,-2.545175552E-1
2.836098782E1,-4.281504080E-2,1.455110312E-2,6.964111328E-2
2.837691800E1,-8.312580734E-2,2.151316404E-2,4.008798599E-1
2.839287869E1,-1.029910240E-2,1.504981518E-2,3.724355698E-1
2.840886990E1,1.651653089E-3,1.228809357E-2,1.064586639E-2
2.842486111E1,-1.076204795E-2,-1.496541500E-2,-2.913141251E-1
2.844079129E1,-5.106309894E-3,-1.904928684E-2,-3.725566864E-1
2.845681302E1,-4.066183418E-2,-5.432218313E-2,-1.013555527E-1
2.847277371E1,-4.145338386E-2,-5.308008194E-2,1.891746521E-1
2.848876492E1,1.252702530E-2,-6.960725784E-2,2.304115295E-1
2.850475613E1,1.025171019E-2,-7.207638025E-2,7.731056213E-2
2.852071683E1,-1.465438399E-2,-4.928112030E-2,-8.316326141E-2
2.853664700E1,-1.961448044E-2,-7.592737675E-3,-1.645107269E-1
2.855260770E1,-5.235458165E-2,1.679629087E-2,-5.169296265E-2
2.856859891E1,-5.410804879E-3,1.212394238E-2,8.758163452E-2
2.858455960E1,1.829754561E-3,-1.776659489E-2,6.877136230E-2
2.860048978E1,-2.053796686E-2,-3.471028805E-2,1.397037506E-2
2.861651151E1,4.623346776E-2,-2.667421103E-2,-2.682170868E-1
2.863247220E1,-1.365315262E-2,-5.149793625E-2,-1.717958450E-1
2.864846341E1,-5.431604385E-2,-4.104876518E-2,1.403713226E-1
2.866445462E1,8.595189080E-3,6.815135479E-3,1.961746216E-1
2.868044583E1,-1.587469317E-2,1.085513830E-2,9.841537476E-2
2.869640652E1,-2.316859737E-2,-5.627870560E-4,-9.053802490E-2
2.871233670E1,-2.587923035E-2,-9.929895401E-3,-1.045818329E-1
2.872832791E1,-5.302769132E-3,-2.081394196E-3,1.268386841E-3
2.874422757E1,-6.018849555E-3,-1.970279217E-2,5.690002441E-2
2.876018826E1,-2.000700682E-2,-5.046063662E-2,3.121662140E-2
2.877614896E1,-4.370173067E-2,-6.219804287E-2,-1.888656616E-2
2.879210965E1,-2.479954809E-2,-3.778904676E-2,-4.965877533E-2
2.880807034E1,-1.518326718E-2,-3.169971704E-2,-3.488159180E-2
2.882400052E1,-1.710322872E-2,-3.448545933E-2,-2.484130859E-2
2.883996121E1,-2.384376712E-2,-2.330005169E-2,5.460834503E-2
2.885589139E1,-1.167446002E-2,-3.022098541E-2,1.665210724E-2
2.887188260E1,-8.965803310E-3,-6.655693054E-3,-4.289436340E-2
2.888787381E1,-8.524827659E-3,-1.835972071E-2,-1.836776733E-3
2.890386502E1,-3.158704937E-2,1.610398293E-3,1.771545410E-2
2.891979520E1,-1.131686475E-2,-2.610146999E-3,-2.739143372E-2
2.893581692E1,-5.745443981E-3,-3.902971745E-3,-1.203403473E-1
2.895177762E1,-2.098461427E-2,-1.272553205E-2,-1.101837158E-1
2.896776883E1,6.524456665E-3,-1.558101177E-2,1.738262177E-2
2.898372952E1,1.862738840E-2,-2.062410116E-2,2.381658554E-1
2.899972073E1,-3.313027322E-2,-3.161180019E-2,1.807785034E-1
2.901568143E1,-3.059022129E-2,-1.908421516E-3,-7.089900970E-2
2.903164212E1,9.309694171E-3,1.227259636E-3,-2.170667648E-1
2.904757230E1,-5.630302802E-2,5.319952965E-3,-1.066274643E-1
2.906353299E1,-1.297069620E-2,-5.525350571E-4,-2.017555237E-1
2.907946317E1,8.228597045E-2,-1.861053705E-2,1.535844803E-1
2.909545438E1,1.470102742E-2,-4.317629337E-2,3.673629761E-1
2.911141507E1,-2.626594901E-2,-6.568163633E-2,1.685714722E-1
2.912740628E1,-4.790924117E-2,-4.525727034E-2,-2.700223923E-1
2.914339749E1,2.290737629E-2,-8.999347687E-3,-4.304056168E-1
2.915935819E1,2.424870618E-3,6.675779819E-3,-1.135263443E-1
2.917528836E1,-3.796326369E-2,1.807570457E-2,3.304929733E-1
2.919127957E1,-6.635733694E-2,7.340550423E-3,3.908329010E-1
2.920727078E1,-2.576196566E-4,1.953387260E-2,1.749906540E-1
2.922326199E1,-2.121300250E-2,4.054987431E-2,-1.703863144E-1
2.923925320E1,-5.516087636E-3,2.191376686E-2,-3.477039337E-1
2.925524442E1,-2.017621696E-2,-1.242512465E-2,-1.197500229E-1
2.927123563E1,-2.746102400E-3,-7.790470123E-2,9.662342072E-2
2.928719632E1,-2.605236880E-2,-1.078598499E-1,1.882820129E-1
2.930309598E1,-2.705212682E-5,-8.727908134E-2,1.500921249E-1
2.931905667E1,6.562280469E-3,-4.075813293E-2,4.683494568E-2
2.933498685E1,-5.000968464E-3,3.119790554E-2,-1.426877975E-1
2.935094754E1,-2.363382652E-2,2.603411674E-2,-2.025728226E-1
2.936696927E1,-2.271779068E-2,1.932537556E-2,-2.258205414E-2
2.938292996E1,4.864629358E-3,-8.598387241E-3,1.430740356E-1
2.939882962E1,-1.244450733E-2,-2.454519272E-2,1.766614914E-1
2.941475980E1,-1.406286843E-3,-2.096760273E-2,-3.192901611E-2
2.943072049E1,4.434652627E-2,-9.654998779E-3,-2.189273834E-1
2.944671170E1,-5.038679391E-2,-2.439504862E-2,-3.440856934E-2
2.946270291E1,-1.465883106E-2,1.423877478E-2,8.073520660E-2
2.947869412E1,-1.464802772E-3,3.578585386E-2,1.501684189E-1
2.949465482E1,-1.756488346E-3,2.572834492E-3,3.488063812E-2
2.951061551E1,-4.553160630E-3,9.234726429E-3,-1.499042511E-1
2.952660672E1,4.093242809E-3,1.203054190E-2,-1.285161972E-1
2.954259793E1,-1.785876043E-2,-7.060170174E-4,2.245044708E-2
2.955855862E1,9.516819380E-3,-3.777533770E-2,1.087408066E-1
2.957454984E1,-3.237138689E-2,-6.403577328E-2,6.306171417E-2
2.959051053E1,-2.439670265E-2,-4.277104139E-2,-4.029846191E-2
2.960650174E1,-6.625893526E-3,-2.569556236E-2,-1.053028107E-1
2.962249295E1,4.050279967E-3,-1.871919632E-2,-7.917404175E-2
2.963845364E1,-6.404994056E-4,-4.461991787E-2,6.432151794E-2
2.965438382E1,-1.284780912E-2,-3.425377607E-2,9.034156799E-2
2.967034451E1,-5.129326135E-3,-2.122771740E-2,1.324272156E-2
2.968630521E1,-1.413135603E-2,2.917814255E-2,-1.499271393E-1
2.970229642E1,-2.603744715E-2,3.634995222E-2,-1.618986130E-1
2.971828763E1,-3.369425237E-2,1.204812527E-2,6.042480469E-3
2.973427884E1,-1.031219959E-2,-1.304399967E-2,1.308269501E-1
2.975027005E1,-1.766077243E-2,-3.058892488E-2,1.307649612E-1
2.976620023E1,-2.618532255E-2,-2.895647287E-2,1.540756226E-2
2.978216092E1,-2.219612338E-2,-1.658070087E-2,-4.976463318E-2
2.979812161E1,-1.568468101E-2,-8.621811867E-3,-4.547119141E-2
2.981414334E1,-1.871971041E-2,-4.318356514E-3,-4.826927185E-2
2.983010403E1,1.251251437E-3,-2.850461006E-2,-2.949810028E-2
2.984609524E1,-2.077519707E-2,-3.122675419E-2,-3.467178345E-2
2.986205594E1,-4.950238392E-3,-1.301175356E-2,3.193664551E-2
2.987804715E1,-1.186831109E-2,-2.032756805E-3,1.079454422E-1
2.989403836E1,-1.278978214E-2,-5.148172379E-3,1.046237946E-1
2.990996854E1,-2.994177304E-2,1.015353203E-2,-3.776836395E-2
2.992595975E1,-5.464822971E-5,-1.021027565E-2,-8.195304871E-2
2.994188992E1,-7.911100984E-2,5.179166794E-3,-7.089710236E-2
2.995785062E1,1.639409922E-2,1.275223494E-2,-2.941761017E-1
2.997378079E1,6.055947021E-2,2.310663462E-2,1.965274811E-1
2.998974149E1,9.182871319E-3,-6.071507931E-3,3.039178848E-1
3.000573270E1,-7.081536949E-2,-4.083585739E-2,8.518028259E-2
3.002172391E1,-3.887077421E-2,-4.218244553E-2,-3.539628983E-1
3.003771512E1,3.631348535E-2,-4.168218374E-2,-4.166316986E-1
3.005373685E1,-1.684279740E-2,-1.538896561E-2,1.925849915E-2
3.006966702E1,-6.770461798E-2,2.170157433E-2,4.718370438E-1
3.008565823E1,-5.719535425E-2,1.933509111E-2,4.806709290E-1
3.010161893E1,-2.701781131E-2,2.589595318E-2,9.132671356E-2
3.011761014E1,-4.126980435E-3,2.249455452E-2,-2.550182343E-1
3.013357083E1,-1.839264855E-2,1.125371456E-2,-3.591194153E-1
3.014953152E1,-1.904222369E-2,-1.949536800E-2,-1.155319214E-1
3.016552274E1,-1.109710708E-2,-6.949359179E-2,1.593151093E-1
3.018148343E1,1.407615095E-2,-7.905071974E-2,2.495622635E-1
3.019738309E1,1.325178891E-4,-6.757056713E-2,6.412124634E-2
3.021331326E1,-2.185150422E-2,1.005080342E-2,-3.522968292E-2
3.022927396E1,-1.834418252E-2,4.455026984E-2,-2.660942078E-1
3.024523465E1,-4.593486339E-2,6.925901771E-2,-1.398801804E-1
3.026113431E1,-3.223934770E-2,5.537024140E-2,-7.091903687E-2
3.027712552E1,4.169767722E-2,1.236236095E-2,1.440896988E-1
3.029305570E1,-3.579379991E-3,-3.067860007E-2,2.104845047E-1
3.030904691E1,1.841144264E-2,-3.082439303E-2,-3.691101074E-2
3.032503812E1,1.012223493E-2,3.313601017E-3,-1.142416000E-1
3.034102933E1,-5.054130033E-2,1.214581728E-2,-1.411418915E-1
3.035702054E1,-3.042531200E-2,4.163688421E-2,-5.776119232E-2
3.037301175E1,-3.237987682E-2,6.042815745E-2,7.116222382E-2
3.038897244E1,-1.052218489E-2,5.585318804E-2,1.138610840E-1
3.040496365E1,-8.367143571E-3,2.013932168E-2,2.004623413E-2
3.042095486E1,-2.386065386E-2,1.812794805E-2,-5.937385559E-2
3.043694608E1,1.511860639E-3,1.081374288E-2,-1.183032990E-2
3.045287625E1,-5.386505276E-3,2.383872867E-3,2.245903015E-3
3.046889798E1,-1.879578456E-2,-3.242194653E-3,-1.956367493E-2
3.048488919E1,-4.177268595E-2,3.432214260E-3,-6.050300598E-2
3.050084988E1,-2.686833963E-2,-1.302687824E-2,-3.916549683E-2
3.051684110E1,-4.624938592E-3,-7.707268000E-3,-1.780700684E-2
3.053283231E1,-2.048296668E-2,1.144623756E-2,3.467941284E-2
3.054882352E1,-2.651984058E-2,1.498480141E-2,3.688716888E-2
3.056484524E1,-3.788769618E-2,2.242724597E-2,-2.554416656E-2
3.058083646E1,-1.620931923E-2,4.192649573E-2,-5.443668365E-2
3.059682767E1,-6.798803806E-3,5.049043521E-2,-1.865673065E-2
3.061278836E1,2.574166283E-3,4.337149113E-2,1.475524902E-2
3.062874905E1,-1.638022065E-2,4.609245062E-2,2.424335480E-2
3.064474027E1,-1.352000237E-2,2.903855778E-2,3.134727478E-2
3.066073148E1,-2.014087886E-2,2.279940806E-2,9.730339050E-3
3.067672269E1,-2.463713288E-2,2.540769801E-2,-7.081985474E-3
3.069271390E1,-2.219431847E-2,4.981344193E-2,-3.105640411E-2
3.070867459E1,-8.096486330E-3,2.991461195E-2,-3.585815430E-2
3.072460477E1,-1.785023138E-2,3.316455334E-2,-4.543399811E-2
3.074056546E1,-2.768879384E-2,3.273920715E-2,6.866455078E-5
3.075658719E1,-1.815445349E-2,2.468500845E-2,3.600597382E-2
3.077251736E1,-1.089494675E-3,2.531031147E-2,3.125762939E-2
3.078850858E1,1.453928649E-3,1.831221953E-2,-1.896572113E-2
3.080449979E1,-2.273437753E-2,1.413577795E-2,-4.284286499E-2
3.082049100E1,-1.583059132E-2,2.978011966E-2,-3.079986572E-2
3.083648221E1,-4.074111581E-3,2.195693552E-2,4.062652588E-4
3.085247342E1,-1.411802322E-2,3.057361394E-2,-4.287719727E-3
3.086846463E1,-1.888548210E-2,3.652787209E-2,-4.179000854E-3
3.088442532E1,-6.937284023E-3,3.318793327E-2,-6.152153015E-2
3.090038602E1,-2.393842675E-2,4.751271009E-2,3.239631653E-3
3.091637723E1,-2.136658132E-2,2.858635783E-2,1.533317566E-2
3.093233792E1,-8.983138949E-3,4.540248215E-2,2.504634857E-2
3.094829861E1,-2.997543663E-2,1.861312985E-2,6.047248840E-3
3.096422879E1,-1.339353994E-2,4.205487669E-2,-5.603885651E-2
3.098012845E1,-2.158820070E-2,2.541148663E-2,-1.253118515E-1
3.099608914E1,-8.615834638E-3,1.123903692E-2,-9.885406494E-2
3.101201932E1,4.920935258E-3,4.155299067E-2,1.358795166E-1
3.102798001E1,1.461629849E-2,5.685353279E-2,2.294225693E-1
3.104391019E1,-2.084843069E-2,4.593116045E-2,4.534244537E-2
3.105987088E1,-3.269147128E-2,2.677175403E-2,-1.817913055E-1
3.107580106E1,-6.294629723E-2,5.020490289E-2,-2.198686600E-1
3.109173123E1,-7.698562741E-2,1.980376244E-2,-2.461128235E-1
3.110775296E1,1.746536419E-2,4.130078852E-2,1.416940689E-1
3.112374417E1,7.726097852E-2,2.855306864E-2,5.056314468E-1
3.113973538E1,1.946857944E-2,2.979391813E-2,1.539392471E-1
3.115572659E1,-2.465599403E-2,-2.548302710E-2,-4.202957153E-1
3.117171780E1,-7.736971602E-3,-1.946517825E-2,-6.116714478E-1
3.118764798E1,-1.368213259E-2,1.639440656E-2,-2.886486053E-1
3.120363919E1,-3.547936305E-2,4.715242982E-2,4.053640366E-1
3.121959988E1,-2.530221455E-2,7.747139037E-2,6.567125320E-1
3.123559110E1,9.682737291E-4,8.302244544E-2,3.075094223E-1
3.125155179E1,9.065017104E-3,1.089809239E-1,-9.889888763E-2
3.126751248E1,-3.116156347E-2,6.189247966E-2,-3.401670456E-1
3.128347318E1,-3.883276135E-2,3.326290846E-2,-2.728366852E-1
3.129937283E1,-3.967524320E-2,1.891249418E-2,-6.207370758E-2
3.131533353E1,5.574498326E-3,-5.854725838E-3,1.055459976E-1
3.133129422E1,6.231524050E-3,-2.616813779E-2,1.128444672E-1
3.134725491E1,-2.653338015E-4,1.466622949E-2,-1.847267151E-3
3.136324612E1,-3.609433398E-2,4.742732644E-2,-6.143569946E-2
3.137923734E1,-2.911638096E-2,5.543628335E-2,-6.361484528E-2
3.139519803E1,-3.889645636E-2,6.526654959E-2,8.369445801E-3
3.141118924E1,-1.460143737E-2,3.955134749E-2,6.597614288E-2
3.142714993E1,-2.204017527E-2,1.749634743E-2,4.940414429E-2
3.144311063E1,-3.127669170E-2,8.834511042E-3,-1.261711121E-2
