"Time (s)","Linear Acceleration x (m/s^2)","Linear Acceleration y (m/s^2)","Linear Acceleration z (m/s^2)"
3.338273100E-2,2.543542534E-2,1.576597989E-2,7.029247284E-2
4.931290700E-2,8.120410144E-3,7.713839412E-3,4.407405853E-2
6.533463500E-2,8.315108716E-3,7.042445242E-3,6.081867218E-2
8.132584600E-2,8.509002626E-3,2.072971314E-2,6.319808960E-2
9.725602200E-2,1.434300840E-2,1.371724904E-2,6.089019775E-2
1.131556800E-1,9.748034179E-3,8.244268596E-3,2.735614777E-2
1.291468910E-1,-9.466506541E-3,5.936153233E-3,4.423236847E-2
1.451075850E-1,1.471638680E-2,-2.543300390E-3,-2.281665802E-2
1.611293130E-1,-6.641566753E-3,-1.417930424E-2,1.016759872E-1
1.770594890E-1,-1.339487731E-2,-1.919865608E-3,2.505397797E-2
1.930507000E-1,-1.042641699E-3,-1.350775361E-2,8.490180969E-2
2.090113930E-1,1.566961408E-2,-8.336089551E-3,-6.081581116E-3
2.250026040E-1,1.308318228E-2,-1.264347881E-2,1.100540161E-3
2.409938150E-1,1.110851765E-3,-9.667128325E-5,7.770919800E-2
2.569850260E-1,-1.330282539E-2,-3.074177355E-2,-3.721523285E-2
2.729457190E-1,5.898438394E-3,-8.809991181E-3,1.231927872E-1
2.889369300E-1,2.241802216E-2,-3.590457141E-3,1.305961609E-2
3.048976240E-1,6.767734885E-4,-3.204897046E-3,7.530784607E-2
3.209193520E-1,4.842728376E-4,1.413045079E-2,-4.201030731E-2
3.368495280E-1,-6.938569248E-3,-2.196244895E-3,-1.309394836E-3
3.528407390E-1,4.696078598E-3,1.973694563E-2,6.812381744E-2
3.688014320E-1,4.599176347E-3,-3.771722317E-3,-7.792472839E-2
3.847926430E-1,-1.455590129E-2,8.680641651E-3,1.279735565E-1
4.007838540E-1,4.549227655E-3,1.605529338E-2,-7.792949677E-2
4.167750650E-1,1.624137163E-3,2.575136721E-3,8.727073669E-2
4.327662760E-1,-1.106932759E-3,1.043069363E-2,-1.328659058E-2
4.487574870E-1,-4.126086831E-3,1.528315246E-3,-1.312255859E-3
4.647181800E-1,-6.951466203E-3,1.168106496E-2,7.769775391E-2
4.806483560E-1,4.828184843E-3,-2.140804753E-2,5.870819092E-3
4.966395670E-1,1.416622102E-2,1.254070550E-2,1.183986664E-1
5.126002600E-1,6.745472550E-3,-1.087575406E-2,-5.637836456E-2
5.285914710E-1,8.753731847E-3,-6.713196635E-4,6.812000275E-2
5.445521650E-1,3.629222512E-3,1.192335784E-2,-2.525424957E-2
5.605128580E-1,3.056392074E-3,5.267001688E-3,1.064310074E-1
5.765345870E-1,-1.901946962E-2,1.771880686E-2,5.376148224E-2
5.925257980E-1,1.909625530E-2,1.340986788E-2,-6.093978882E-3
6.084864910E-1,2.188771963E-3,3.066824377E-2,1.231918335E-1
6.244166670E-1,9.320601821E-3,2.229273319E-3,-5.876922607E-2
6.404383950E-1,2.035111189E-3,1.209628582E-2,1.784515381E-2
6.563990890E-1,9.299859405E-3,-1.948863268E-3,4.657268524E-2
6.722987470E-1,-5.123063922E-3,3.273114562E-3,1.305198669E-2
6.882899580E-1,9.288385510E-3,-3.428757191E-3,3.938293457E-2
7.042506510E-1,4.642561078E-3,-3.090426326E-3,6.092643738E-2
7.202723800E-1,-7.375985384E-3,2.271041274E-3,1.069068909E-3
7.361720380E-1,-5.029544234E-3,9.884499013E-3,2.500820160E-2
7.521632490E-1,-1.221393794E-2,1.285482943E-2,4.176425934E-2
7.681239420E-1,-4.841655493E-3,-1.026749611E-3,1.542282104E-2
7.840846350E-1,1.177389920E-2,2.358546853E-2,2.978515625E-2
8.001063640E-1,-5.029067397E-3,2.422592044E-2,1.062870026E-2
8.160060220E-1,-9.763374925E-3,2.479761466E-2,1.047134399E-3
8.320277510E-1,4.474908113E-3,3.728313744E-2,2.259445190E-2
8.479884440E-1,-1.234316081E-2,2.101708204E-2,1.062011719E-2
8.640101730E-1,2.244412899E-3,2.613415569E-2,4.174041748E-2
8.800013830E-1,9.532898664E-3,2.673373371E-2,1.539897919E-2
8.959925940E-1,1.201069355E-2,1.022777334E-2,4.412651062E-2
9.119532880E-1,1.428286731E-2,-1.343462616E-3,2.018260956E-2
9.279444990E-1,-7.086545229E-3,8.588563651E-3,2.496719360E-2
9.439051920E-1,1.956686378E-2,6.609797478E-3,3.214359283E-2
9.598353680E-1,-1.123479754E-2,-9.727936238E-3,3.931903839E-2
9.758570960E-1,1.064138114E-2,1.694878936E-2,3.213024139E-2
9.918177900E-1,6.268978119E-3,7.780205458E-3,1.775741577E-2
1.007809001E0,8.589446545E-3,2.249435335E-2,2.733325958E-2
1.023739176E0,-9.610652924E-4,1.575612277E-2,2.972412109E-2
1.039669352E0,6.721481681E-3,2.089789510E-2,5.365753174E-2
1.055630046E0,9.180039167E-3,-7.426854223E-3,1.534748077E-2
1.071651774E0,2.095898986E-2,1.667559892E-2,4.647445679E-2
1.087581950E0,1.112394035E-2,1.447083429E-2,1.295757294E-2
1.103542643E0,-8.091300726E-3,1.240225881E-2,4.647541046E-2
1.119564372E0,8.632645011E-3,1.032604650E-2,1.534938812E-2
1.135555583E0,1.500099897E-3,8.109018207E-3,3.928947449E-2
1.151546794E0,3.739953041E-3,1.791345328E-2,3.210735321E-2
1.167507487E0,-8.031293750E-3,1.831507310E-2,2.731418610E-2
1.183437663E0,-8.603036404E-4,4.046767950E-3,2.252578735E-2
1.199398356E0,4.032865167E-3,2.326102927E-2,8.158683777E-3
1.215389567E0,1.750156283E-3,2.131909877E-2,1.294326782E-2
1.231319743E0,1.745268703E-3,1.690357924E-2,2.491188049E-2
1.247280436E0,-1.740851998E-2,3.616782650E-2,-1.019811630E-1
1.263241130E0,-2.033258975E-2,-2.059578896E-3,3.928279877E-2
1.279262858E0,3.486245871E-3,1.481147110E-2,3.928375244E-2
1.295223551E0,9.744167328E-4,3.416253626E-2,2.013111115E-2
1.311245280E0,-4.020869732E-3,2.718341723E-2,2.970981598E-2
1.327205973E0,3.141060472E-3,2.253398672E-2,1.773929596E-2
1.343227702E0,1.024097204E-2,4.434658587E-2,9.784698486E-4
1.359218913E0,5.365744233E-3,5.878465623E-2,2.970981598E-2
1.375210124E0,1.234394312E-2,1.324040070E-2,1.774215698E-2
1.391170817E0,1.242943108E-2,4.197642580E-2,5.769729614E-3
1.407131510E0,7.709726691E-3,2.731433511E-2,4.168319702E-2
1.423092204E0,1.262244582E-2,1.765160263E-2,2.492237091E-2
1.439052897E0,9.470432997E-4,3.695761040E-2,2.252483368E-2
1.455074626E0,-6.377115846E-3,1.792100817E-2,-8.599281311E-3
1.471004801E0,1.742945611E-2,1.088547334E-2,4.407310486E-2
1.486996012E0,1.266320050E-2,1.357142627E-2,3.210163116E-2
1.502926188E0,-6.146550179E-3,1.619760320E-2,3.209495544E-2
1.518856364E0,-1.100692898E-2,1.877149194E-2,3.927707672E-2
1.534786540E0,-1.589417458E-3,1.918586344E-2,-3.817558289E-3
1.550808268E0,-1.836593449E-2,2.903590724E-2,2.012348175E-2
1.566768962E0,1.505367458E-2,3.413517028E-2,1.772880554E-2
1.582790690E0,1.712338626E-2,4.871657863E-2,5.760192871E-3
1.598781901E0,1.848489046E-4,2.967748418E-2,1.533889771E-2
1.614773112E0,2.553030849E-3,3.205023333E-2,2.731132507E-2
1.630733805E0,7.172212005E-3,4.405124113E-2,9.765625000E-4
1.646725016E0,4.677489400E-3,2.247238904E-2,9.775161743E-4
1.662655192E0,1.166008413E-2,1.775756106E-2,2.013397217E-2
1.678585368E0,6.920501590E-3,2.712742239E-2,2.731704712E-2
1.694576579E0,2.286449075E-3,1.959442347E-2,2.013397217E-2
1.710537272E0,4.891678691E-3,9.843058884E-3,5.766868591E-3
1.726497965E0,4.917666316E-3,1.702567562E-2,2.492046356E-2
1.742519694E0,2.451196313E-3,1.459886879E-2,2.731609344E-2
1.758510905E0,-2.385050058E-3,2.631206065E-2,2.492237091E-2
1.774380046E0,4.737466574E-3,3.332528472E-2,1.534748077E-2
1.790401774E0,-1.747459173E-4,2.116908506E-2,2.971553802E-2
1.806362467E0,7.165059447E-3,4.253852367E-2,8.167266846E-3
1.822384196E0,1.917998493E-2,2.556105703E-2,2.492618561E-2
1.838375407E0,-4.862114787E-3,1.569084823E-2,2.253627777E-2
1.854366618E0,2.618455887E-2,2.494716644E-2,1.535511017E-2
1.870327311E0,-7.581844926E-3,1.033101603E-2,3.930282593E-2
1.886318522E0,4.357814789E-3,1.014164463E-2,-6.186485291E-3
1.902279215E0,-1.013456285E-2,1.236489043E-2,3.393173218E-3
1.918300944E0,3.979489207E-3,2.418887243E-2,1.058006287E-2
1.934200602E0,1.382812858E-3,9.597282857E-3,3.213214874E-2
1.950191813E0,-5.712419748E-3,2.147877589E-2,1.297760010E-2
1.966183024E0,-3.007188439E-3,1.658962294E-2,1.776218414E-2
1.982204753E0,1.634955406E-3,6.983112544E-3,8.188247681E-3
1.998195964E0,1.564779878E-2,1.648947224E-2,4.889392853E-2
2.014187174E0,1.025485992E-2,2.335496247E-3,2.735328674E-2
2.030147868E0,1.696577668E-2,1.419142634E-2,2.017688751E-2
2.046139079E0,-9.687319398E-3,2.847134322E-2,3.423690796E-3
2.062099772E0,-7.584527135E-3,2.123178169E-2,1.060962677E-2
2.078060465E0,-2.991527319E-3,3.317966312E-2,1.061153412E-2
2.094082194E0,4.028096795E-3,2.128541842E-2,5.825042725E-3
2.110042887E0,-8.255168796E-3,1.426962391E-2,1.540565491E-2
2.126003581E0,8.216440678E-3,4.072676226E-2,2.019786835E-2
2.141964274E0,3.313332796E-3,7.398497313E-3,1.540946960E-2
2.157924967E0,7.885694504E-3,1.708330959E-2,2.259540558E-2
2.173916178E0,-1.638635248E-2,2.881560475E-3,2.259826660E-2
2.189815837E0,3.443807364E-4,5.287747830E-3,1.062774658E-2
2.205776530E0,1.715357602E-2,-3.863453865E-3,3.456592560E-2
2.221737223E0,-6.741672754E-3,6.011176854E-3,1.541137695E-2
2.237728434E0,-2.089738846E-3,2.105698362E-2,1.044273376E-3
2.253689128E0,1.932471991E-2,7.325362414E-3,1.780223846E-2
2.269680339E0,-1.184567809E-2,1.270141453E-2,2.737712860E-2
2.285641032E0,-2.256542444E-3,3.944859281E-2,1.061534882E-2
2.301571208E0,-4.563063383E-3,3.019525856E-2,2.497673035E-2
2.317592936E0,-4.518568516E-3,1.666184515E-2,1.539516449E-2
2.333462077E0,-4.498809576E-3,8.777942508E-3,2.256965637E-2
2.349453288E0,-9.171232581E-3,6.541091949E-3,2.495002747E-2
2.365444499E0,7.538154721E-3,2.094358951E-2,8.181571960E-3
2.381374674E0,7.251754403E-3,3.463663906E-2,1.296710968E-2
2.397396403E0,6.951272488E-3,2.836760879E-2,1.057243347E-2
2.413326579E0,1.978412271E-3,1.712293923E-2,2.014923096E-2
2.429256755E0,-3.200992942E-3,6.079826504E-3,3.392219543E-3
2.445217448E0,1.577809453E-3,1.629522815E-2,-1.097679138E-2
2.461147624E0,8.834049106E-3,2.439453080E-2,2.972126007E-2
2.477108317E0,-3.008157015E-3,1.086676493E-2,2.971649170E-2
2.493099528E0,1.161651313E-2,2.278406173E-3,8.162498474E-3
2.509060221E0,2.140954137E-3,1.188620925E-3,2.252197266E-2
2.525020915E0,-2.536207438E-3,7.963074371E-3,5.753517151E-3
2.540981608E0,7.007971406E-3,4.353569821E-3,2.011585236E-2
2.556881266E0,-7.291272283E-3,-1.001693308E-4,3.355026245E-3
2.572902995E0,1.171797514E-2,4.467135295E-2,6.560134888E-2
2.588863688E0,-1.201245189E-2,-1.109998673E-3,1.770877838E-2
2.604824381E0,-5.048573017E-3,1.007775404E-2,1.770782471E-2
2.620815592E0,2.255946398E-3,6.839251146E-3,2.249145508E-2
2.636745768E0,7.432818413E-3,-1.410456374E-3,1.769447327E-2
2.652736979E0,-2.189964056E-3,1.391186006E-2,2.487564087E-2
2.668636637E0,-1.670955867E-2,1.119223051E-2,-6.251335144E-3
2.684627848E0,7.077112794E-3,3.038125858E-2,3.923702240E-2
2.700588542E0,-2.529561520E-3,5.890833214E-3,4.641819000E-2
2.716610270E0,-4.867389798E-3,9.053378366E-3,-1.104640961E-2
2.732540446E0,9.544953704E-3,6.147477776E-3,2.486801147E-2
2.748470622E0,-7.409766316E-3,1.769478433E-2,3.684329987E-2
2.764461833E0,-7.585331798E-3,6.160946563E-3,1.290225983E-2
2.780392008E0,8.905038238E-3,4.981944337E-3,2.726936340E-2
2.796383219E0,-7.756456733E-3,1.872330718E-2,2.008342743E-2
2.812313395E0,-9.524405003E-3,-1.066384837E-2,2.725601196E-2
2.828304606E0,-4.114732146E-3,-1.608568709E-3,1.048660278E-2
2.844265299E0,-1.108983159E-2,7.132239640E-3,1.048278809E-2
2.860225993E0,8.038252592E-3,1.023132075E-2,2.484798431E-2
2.876247721E0,1.311826706E-2,4.973974079E-3,3.202629089E-2
2.892147380E0,1.585587859E-3,1.631811634E-2,3.201961517E-2
2.908169108E0,-1.664219052E-2,2.195994742E-2,4.158782959E-2
2.924129801E0,1.075719297E-2,-1.306035556E-2,2.960777283E-2
2.940151530E0,4.524171352E-3,8.892519400E-3,8.056640625E-3
2.956142741E0,-1.902627945E-2,-1.812111586E-2,1.763629913E-2
2.972133952E0,7.462635636E-3,-4.767648876E-3,1.045417786E-2
2.988094645E0,1.947878301E-2,-1.210385934E-3,2.482223511E-2
3.004055339E0,-1.640617847E-3,-3.683099523E-3,2.721786499E-2
3.020016032E0,-9.216666222E-4,1.284043491E-2,4.876995087E-2
3.035915690E0,1.467537880E-2,-1.140193269E-2,4.878807068E-2
3.051937419E0,-2.951458097E-3,-1.369369403E-2,1.530838013E-2
3.067867594E0,3.013782203E-3,-1.653555036E-2,2.015018463E-2
3.083858805E0,-8.157223463E-3,-1.266963780E-3,1.301574707E-2
3.099819499E0,1.939795911E-3,-2.211330086E-2,2.021408081E-2
3.115719157E0,-2.440411597E-2,-1.588486135E-3,1.541805267E-2
3.131740885E0,-1.474309713E-2,-1.013235748E-2,1.780128479E-2
3.147671061E0,2.100415528E-3,-9.674362838E-3,1.780414581E-2
3.163631755E0,-9.851902723E-5,-1.879483461E-4,1.781940460E-2
3.179592448E0,-6.941899657E-3,-1.651048660E-2,-1.317024231E-3
3.195553141E0,-4.401646554E-3,-7.656186819E-3,2.503108978E-2
3.211574870E0,-6.796896458E-3,-1.384019852E-3,2.743816376E-2
3.227505046E0,-9.099557996E-3,-1.379501820E-2,3.224182129E-2
3.243496256E0,-1.970641315E-3,-1.658026874E-2,1.789474487E-2
3.259426432E0,-9.109161794E-3,-1.821633428E-2,2.510452271E-2
3.275448161E0,3.052048385E-3,-1.161515713E-2,2.035331726E-2
3.291347819E0,6.643980742E-4,-2.143954486E-2,1.082134247E-2
3.307369548E0,-6.371766329E-3,1.927487552E-3,2.522754669E-2
3.323299723E0,-6.321862340E-3,1.199164242E-2,3.722858429E-2
3.339229899E0,-3.837682307E-3,-1.488746703E-2,3.009128571E-2
3.355251628E0,-3.653071821E-3,-2.160792798E-2,1.820755005E-2
3.371181803E0,-1.299391687E-2,-3.144355118E-2,2.310848236E-2
3.387173014E0,-8.042596281E-3,-2.529294789E-2,4.066467285E-3
3.403164225E0,-1.037993282E-2,-2.158488333E-2,2.091026306E-2
3.419124919E0,-7.464960217E-4,-1.688428223E-2,2.816200256E-2
3.435146647E0,-6.464049220E-4,-1.909203827E-2,1.626491547E-2
3.451137858E0,-2.918905020E-2,-1.823252439E-2,1.156234741E-2
3.467129069E0,-7.413662970E-3,-2.365225554E-2,1.406097412E-2
3.483059245E0,9.530082345E-3,-1.869127154E-2,2.854919434E-2
3.499050456E0,-1.392991096E-2,-2.011004090E-2,3.347682953E-2
3.515041667E0,-1.124060899E-2,-3.316012025E-2,2.884387970E-2
3.531032878E0,-1.109325141E-2,-2.635805309E-2,3.141593933E-2
3.546993571E0,8.205823600E-3,-2.168056369E-2,4.118442535E-2
3.562923747E0,-1.770560443E-2,-1.799704134E-2,3.178405762E-2
3.578914958E0,-8.129999042E-4,-3.878475726E-2,2.238273621E-2
3.594875651E0,-5.606204271E-3,-2.938120067E-2,3.691005707E-2
3.610866862E0,-1.036401093E-2,-2.098013461E-2,3.471565247E-2
3.626827555E0,-4.309713840E-4,-4.807280004E-2,1.583576202E-2
3.642818766E0,1.181317866E-2,-2.353894711E-2,4.187583923E-3
3.658748942E0,-9.361349046E-3,-3.190129995E-2,2.609157562E-2
3.674648600E0,1.230385154E-2,-2.948695421E-2,3.608036041E-2
3.690670329E0,-9.113810956E-3,-3.609997034E-2,1.251411438E-2
3.706600505E0,-2.823144197E-2,-4.418098927E-2,7.997512817E-3
3.722591715E0,1.009286940E-2,-5.189949274E-2,2.249717712E-2
3.738521891E0,5.261264741E-3,-1.432988048E-2,2.015590668E-2
3.754482585E0,1.489325613E-2,-2.484056354E-2,5.140590668E-2
3.770443278E0,-1.365469396E-2,-3.246077895E-2,3.486633301E-2
3.786342936E0,-3.939144313E-3,-4.409405589E-2,1.596546173E-2
3.802334147E0,-6.066665053E-3,-2.724850178E-2,1.381874084E-2
3.818264323E0,-5.883470178E-3,-3.616204858E-2,5.000495911E-2
3.834255534E0,-3.005373478E-2,-5.443477631E-2,1.660633087E-2
3.850216227E0,5.650646985E-3,-7.521590590E-2,1.432991028E-2
3.866176921E0,-2.094053477E-2,-4.723963141E-2,7.208824158E-3
3.882168131E0,5.343317986E-3,-5.541491508E-2,4.866600037E-3
3.898189860E0,-1.896971464E-2,-6.863608956E-2,1.936721802E-2
3.914181071E0,-9.401693940E-3,-8.480837941E-2,2.665996552E-2
3.930080729E0,7.466427982E-3,-8.670049906E-2,2.455425262E-2
3.946071940E0,-2.627228200E-2,-9.059974551E-2,1.740837097E-2
3.962032633E0,-5.024336278E-3,-9.360978007E-2,2.217578888E-2
3.977962809E0,-1.692661643E-2,-9.473836422E-2,-1.810073853E-3
3.993984538E0,-9.995244443E-3,-9.747803211E-2,1.972866058E-2
4.009914714E0,-1.010904461E-2,-9.812167287E-2,2.937412262E-2
4.025905924E0,-1.478714496E-2,-1.104593575E-1,2.954196930E-2
4.041897135E0,-5.138948560E-3,-1.015048921E-1,9.708404541E-4
4.057857829E0,-7.554799318E-3,-1.348238289E-1,1.783275604E-2
4.073879557E0,-1.941001415E-2,-1.218588054E-1,3.223609924E-2
4.089870768E0,-1.203785837E-2,-1.202191710E-1,3.478813171E-2
4.105861979E0,-9.437710047E-3,-1.138207912E-1,5.180072784E-2
4.121792155E0,-1.169242710E-2,-1.230444014E-1,4.222869873E-3
4.137783366E0,3.041103482E-4,-1.184424162E-1,4.512786865E-3
4.153774577E0,-6.795369089E-3,-1.364383101E-1,9.552001953E-3
4.169765788E0,-1.154049486E-2,-1.531952322E-1,1.792907715E-4
4.185726481E0,-1.400525868E-2,-1.405877471E-1,2.704620361E-3
4.201687174E0,-1.632878184E-2,-1.391655505E-1,3.389072418E-2
4.217647868E0,-2.338983119E-2,-1.497850716E-1,4.841804504E-2
4.233608561E0,-6.541900337E-3,-1.724736392E-1,7.981300354E-3
4.249599772E0,5.874037743E-4,-1.736152172E-1,8.253097534E-3
4.265529948E0,-8.785225451E-3,-1.598542035E-1,3.739070892E-2
4.281521159E0,9.326413274E-4,-1.505271494E-1,1.148605347E-2
4.297481852E0,-2.254097164E-2,-1.500001252E-1,1.914215088E-2
4.313412028E0,-1.459842920E-2,-1.557874382E-1,7.577896118E-3
4.329433756E0,-2.005562186E-3,-1.529265046E-1,3.158569336E-3
4.345394450E0,-8.913844824E-3,-1.477773488E-1,1.298999786E-2
4.361385661E0,-1.132787019E-2,-1.477529109E-1,1.299095154E-2
4.377315837E0,1.026194543E-2,-1.567147970E-1,3.935909271E-2
4.393276530E0,-8.959650993E-3,-1.580131352E-1,1.319885254E-2
4.409298258E0,-4.122979939E-3,-1.651364565E-1,1.104927063E-2
4.425228434E0,-9.036689997E-3,-1.483879685E-1,2.087402344E-2
4.441219645E0,-1.123674214E-2,-1.582769752E-1,2.589225769E-2
4.457149821E0,7.968038321E-3,-1.702386141E-1,3.584575653E-2
4.473018962E0,3.269791603E-3,-1.542361975E-1,4.005432129E-4
4.489010173E0,7.959529757E-4,-1.489273310E-1,1.278781891E-2
4.504970866E0,-6.046026945E-3,-1.536245942E-1,3.474235535E-3
4.520962077E0,-1.330882311E-3,-1.494615078E-1,3.456592560E-2
4.536892253E0,1.034326851E-3,-1.667197347E-1,5.808830261E-3
4.552761393E0,-1.348751783E-2,-1.586897969E-1,-2.539920807E-2
4.568783122E0,5.452960730E-3,-1.380591989E-1,4.159164429E-2
4.584713298E0,5.298562348E-3,-1.473477483E-1,3.468894958E-2
4.600704508E0,-9.064748883E-3,-1.463813186E-1,-3.298759460E-3
4.616634684E0,-1.135119051E-2,-1.539252400E-1,3.538894653E-2
4.632534342E0,7.469356060E-4,-1.659053564E-1,-1.462078094E-2
4.648556071E0,-1.346775144E-2,-1.417632103E-1,1.172637939E-2
4.664516764E0,5.790442228E-3,-1.571310759E-1,-2.833366394E-3
4.680507975E0,-3.728582710E-2,-1.420230865E-1,2.566909790E-2
4.696438151E0,5.892962217E-3,-1.512076855E-1,3.992080688E-2
4.712368327E0,5.940116942E-3,-1.584592462E-1,2.568531036E-2
4.728329020E0,-6.182864308E-3,-1.525948048E-1,3.320217133E-2
4.744320231E0,-1.824870706E-2,-1.527912617E-1,4.078483582E-2
4.760280924E0,-6.192095578E-3,-1.701670289E-1,2.856254578E-3
4.776211100E0,-1.068858802E-2,-1.661760211E-1,6.914138794E-4
4.792232829E0,-1.548916847E-2,-1.632805467E-1,1.508617401E-2
4.808163005E0,-1.059854776E-2,-1.874920130E-1,1.028060913E-2
4.824184733E0,1.532599330E-3,-1.570203304E-1,1.263523102E-2
4.840114909E0,-3.363050520E-3,-1.555967927E-1,3.173351288E-2
4.856075602E0,-1.292654127E-2,-1.788415909E-1,1.980304718E-2
4.872097331E0,-3.228813410E-3,-1.595281959E-1,4.178142548E-2
4.887996989E0,1.636534929E-3,-1.624379158E-1,4.232215881E-2
4.904018717E0,2.327156812E-2,-1.789316535E-1,-4.818916321E-3
4.919948893E0,-5.543179810E-3,-1.789140105E-1,-1.829147339E-3
4.935909587E0,-2.874113619E-3,-1.728936434E-1,3.183364868E-3
4.951870280E0,-2.867412567E-2,-1.621075273E-1,5.496978760E-3
4.967892008E0,9.765096009E-3,-1.520176530E-1,1.241016388E-2
4.983852702E0,-4.284374416E-3,-1.599834561E-1,3.615283966E-2
4.999813395E0,3.101095557E-3,-1.602617502E-1,1.218986511E-2
5.015804606E0,-1.356158406E-2,-1.602518559E-1,-1.160335541E-2
5.031795817E0,7.978998125E-3,-1.705613136E-1,2.456188202E-2
5.047787028E0,5.705147982E-3,-1.687063575E-1,1.525115967E-2
5.063747721E0,-8.506990969E-3,-1.645324230E-1,2.030181885E-2
5.079738932E0,1.060909033E-2,-1.880895495E-1,8.506774902E-3
5.095730143E0,6.132692099E-3,-1.454824805E-1,2.105903625E-2
5.111751872E0,-6.032004952E-3,-1.459379792E-1,1.578140259E-2
5.127682048E0,-1.072115451E-2,-1.634154320E-1,2.531051636E-2
5.143673258E0,-1.074026525E-2,-1.553779840E-1,4.452037811E-2
5.159664469E0,-1.534814388E-2,-1.393342018E-1,3.280830383E-2
5.175594645E0,-3.248579800E-3,-1.518769264E-1,7.053375244E-3
5.191616374E0,-3.319673240E-3,-1.739079356E-1,2.457046509E-2
5.207546549E0,-2.721367776E-2,-1.670491695E-1,-1.148223877E-3
5.223568278E0,-1.746126264E-2,-1.695233583E-1,6.187438965E-3
5.239528971E0,-1.974534988E-2,-1.601331830E-1,1.303482056E-2
5.255459147E0,1.955710351E-3,-1.631387472E-1,-4.405021667E-3
5.271419840E0,6.604768336E-3,-1.522525549E-1,4.278373718E-2
5.287411051E0,-2.192036808E-2,-1.338714361E-1,3.044986725E-2
5.303371745E0,-2.676472068E-3,-1.367269754E-1,1.605415344E-2
5.319362956E0,1.651174575E-2,-1.576142907E-1,1.130771637E-2
5.335323649E0,9.188532829E-3,-1.547142863E-1,-7.829666138E-4
5.351284342E0,4.322133958E-3,-1.646807194E-1,6.069183350E-3
5.367306071E0,-1.014447212E-2,-1.622402072E-1,8.012771606E-3
5.383236247E0,-1.992613077E-2,-1.369583607E-1,1.707649231E-2
5.399135905E0,4.009731114E-3,-1.446130872E-1,2.857589722E-2
5.415096598E0,1.612067223E-3,-1.428623796E-1,3.542804718E-2
5.431118327E0,8.789129555E-3,-1.413946152E-1,1.607227325E-2
5.447017985E0,-1.516319811E-2,-1.348537207E-1,2.546787262E-2
5.463039714E0,-2.234654129E-2,-1.369185448E-1,1.257896423E-3
5.478969889E0,-1.290496439E-2,-1.221085787E-1,2.001380920E-2
5.494900065E0,-5.536191165E-3,-1.465488672E-1,3.871536255E-2
5.510921794E0,1.586958766E-3,-1.346377730E-1,3.829765320E-2
5.526821452E0,-5.708016455E-3,-1.416448951E-1,1.874637604E-2
5.542843180E0,1.101341844E-2,-1.264294982E-1,-1.486110687E-2
5.558803874E0,-1.341693103E-3,-1.412559748E-1,3.526115417E-2
5.574825602E0,-2.537793666E-2,-1.227088571E-1,3.509330750E-2
5.590816813E0,-2.027821541E-2,-1.234594584E-1,2.533817291E-2
5.606808024E0,1.095750183E-2,-1.123698354E-1,2.515506744E-2
5.622768717E0,-5.375534296E-3,-1.041761041E-1,1.776027679E-2
5.638759928E0,6.869114935E-3,-1.150391698E-1,3.670978546E-2
5.654690104E0,7.025040686E-3,-1.215421557E-1,5.084991455E-2
5.670620280E0,-1.217029989E-2,-9.494876862E-2,9.904861450E-3
5.686642008E0,1.179473847E-2,-1.220288277E-1,1.439762115E-2
5.702572184E0,-2.885840833E-3,-9.216713905E-2,1.874446869E-2
5.718563395E0,-5.559913814E-3,-9.734746814E-2,2.277660370E-2
5.734493571E0,-8.334673941E-3,-8.470442891E-2,4.352760315E-2
5.750454264E0,1.049301028E-2,-1.042276025E-1,3.084850311E-2
5.766475993E0,3.053002059E-3,-1.074853539E-1,3.743267059E-2
5.782375651E0,-6.661608815E-3,-9.164565802E-2,2.019500732E-2
5.798366862E0,-4.603959620E-3,-9.270331264E-2,4.616641998E-2
5.814327555E0,-9.599648416E-3,-8.596891165E-2,4.354381561E-2
5.830349284E0,-1.699812710E-2,-1.163173020E-1,2.661228180E-2
5.846279460E0,-7.479555905E-3,-1.083580256E-1,1.446819305E-2
5.862301188E0,-1.214849949E-2,-9.845176339E-2,4.699707031E-3
5.878231364E0,-2.160484344E-2,-1.121842563E-1,1.399898529E-2
5.894192057E0,-1.183214784E-2,-1.047234237E-1,-7.837295532E-3
5.910213786E0,4.923343658E-5,-1.210665703E-1,3.958034515E-2
5.926113444E0,4.785798490E-3,-9.503057599E-2,2.952098846E-2
5.942135173E0,-1.454983652E-2,-1.189307868E-1,-4.450798035E-3
5.958095866E0,-1.257882267E-2,-1.186679304E-1,-8.869171143E-5
5.974117594E0,-5.648933351E-3,-1.097636223E-1,1.383018494E-2
5.990017253E0,6.210893393E-3,-7.850864530E-2,2.332973480E-2
6.006008464E0,-1.027889550E-3,-8.935093880E-2,4.244041443E-2
6.021999674E0,-1.541426778E-2,-6.931874156E-2,2.810478210E-2
6.037960368E0,-9.279921651E-4,-6.851193309E-2,1.863861084E-2
6.053890544E0,3.821730614E-3,-8.547714353E-2,9.223937988E-3
6.069881755E0,6.149321795E-3,-5.575650930E-2,1.173877716E-2
6.085872965E0,8.730895817E-3,-5.526426435E-2,-5.004882812E-3
6.101833659E0,1.437008381E-3,-5.560609698E-2,-7.494926453E-3
6.117794352E0,8.449882269E-3,-5.047848821E-2,2.817821503E-2
6.133755046E0,-1.302294433E-3,-3.770124912E-2,2.548313141E-2
6.149746256E0,5.790621042E-3,-2.235010266E-2,5.400657654E-2
6.165706950E0,-1.530803740E-3,-2.589613199E-3,2.521800995E-2
6.181637126E0,3.074087203E-3,-3.372940421E-2,6.146430969E-3
6.197628337E0,-4.237651825E-3,-1.282721758E-2,1.825809479E-2
6.213558512E0,7.743909955E-3,-9.152799845E-3,1.359462738E-2
6.229458171E0,-4.250288010E-3,-1.120403409E-2,1.360702515E-2
6.245479899E0,-1.159927249E-2,-5.536943674E-3,2.065753937E-2
6.261410075E0,-2.163328230E-3,9.807944298E-4,4.689216614E-2
6.277401286E0,1.191280037E-2,2.174836397E-2,4.192256927E-2
6.293361979E0,-2.759799361E-3,2.721437812E-2,4.179096222E-2
6.309261637E0,6.761111319E-3,1.126226783E-2,3.703022003E-2
6.325252848E0,-7.651820779E-3,3.729692101E-2,4.188728333E-2
6.341152506E0,1.829899848E-3,3.173685074E-2,-1.153945923E-3
6.357143717E0,-3.098495305E-3,3.175187111E-2,8.424758911E-3
6.373104411E0,-1.539557427E-2,5.096444488E-2,4.665946960E-2
6.389126139E0,-1.349262893E-3,4.951143265E-2,3.935432434E-2
6.405056315E0,-6.073944271E-3,5.572584271E-2,2.009201050E-2
6.420955973E0,5.769394338E-3,4.122036695E-2,3.206062317E-2
6.436916667E0,5.973301828E-3,5.934619904E-2,2.978420258E-2
6.452846842E0,-1.293668896E-2,5.289074779E-2,1.799201965E-2
6.468777018E0,-5.240961909E-4,5.978727341E-2,1.813602448E-2
6.484737712E0,6.630271673E-3,4.459172487E-2,3.823280334E-3
6.500728923E0,6.293833256E-3,6.840148568E-2,2.768516541E-2
6.516689616E0,1.234106719E-3,8.754955232E-2,3.231716156E-2
6.532619792E0,1.094102859E-3,7.504859567E-2,3.214645386E-2
6.548641520E0,-8.658498526E-3,9.163016081E-2,3.198909760E-2
6.564571696E0,7.721856236E-4,8.909136057E-2,3.662300110E-2
6.580562907E0,9.946309030E-3,8.912652731E-2,2.690410614E-2
6.596523600E0,-4.675604403E-3,1.073276103E-1,3.151988983E-2
6.612453776E0,-4.838667810E-3,8.771727979E-2,3.854656219E-2
6.628475505E0,-8.551031351E-5,1.097699106E-1,4.560375214E-2
6.644375163E0,-7.454231381E-3,1.066155136E-1,2.875423431E-2
6.660396891E0,-2.538047731E-3,1.055121422E-1,3.829765320E-2
6.676357585E0,-2.573914826E-3,1.212231368E-1,4.312515259E-2
6.692379313E0,-7.262594998E-3,1.022090018E-1,2.165031433E-2
6.708370524E0,-1.907800883E-2,1.222448200E-1,2.519607544E-3
6.724361735E0,-2.399414778E-3,1.159683913E-1,1.444911957E-2
6.740322428E0,-1.578256488E-4,1.285923123E-1,-7.217407227E-3
6.756252604E0,-1.005931944E-2,1.278681159E-1,5.009078979E-2
6.772243815E0,1.503609121E-3,1.337398738E-1,4.034900665E-2
6.788235026E0,8.491493762E-3,1.418600380E-1,9.057044983E-3
6.804226237E0,2.263754606E-2,1.560330987E-1,4.483985901E-2
6.820186930E0,3.147967160E-3,1.420734674E-1,2.790737152E-2
6.836178141E0,-1.147929579E-2,1.329967678E-1,6.253242493E-3
6.852169352E0,1.247487962E-2,1.256724447E-1,2.055549622E-2
6.868191081E0,2.605989575E-3,1.297477186E-1,2.760505676E-2
6.884151774E0,-1.152753830E-4,1.304487288E-1,2.021312714E-2
6.900142985E0,1.821130514E-3,1.426156312E-1,4.873275757E-2
6.916103678E0,1.151986420E-3,1.274893135E-1,2.227973938E-2
6.932033854E0,-1.723937690E-3,1.299423277E-1,3.410339355E-2
6.948055583E0,-7.013313472E-3,1.217091307E-1,1.243877411E-2
6.963924723E0,-9.650118649E-3,1.254514903E-1,1.476573944E-2
6.979946452E0,-3.622099757E-4,1.400756836E-1,2.190876007E-2
6.995876628E0,8.978314698E-3,1.245820746E-1,2.184104919E-2
7.011837321E0,-1.299783587E-3,1.263164431E-1,1.456069946E-2
7.027859049E0,5.084328353E-3,1.239013225E-1,-1.429653168E-2
7.043758708E0,3.948882222E-3,1.162296981E-1,9.522438049E-3
7.059780436E0,-8.833266795E-3,1.467469335E-1,4.770469666E-2
7.075771647E0,2.519220114E-3,1.511914730E-1,3.561687469E-2
7.091793376E0,-7.512331009E-3,1.482190341E-1,2.356719971E-2
7.107784587E0,-1.008620113E-2,1.315405965E-1,2.832221985E-2
7.123745280E0,9.122863412E-3,1.318399310E-1,3.550815582E-2
7.139705973E0,-2.957940102E-3,1.246995926E-1,4.508686066E-2
7.155697184E0,-1.997418702E-2,1.402408779E-1,1.394748688E-2
7.171657878E0,1.383721828E-3,1.130455285E-1,2.823066711E-2
7.187618571E0,-1.169845462E-3,1.484643072E-1,3.294467926E-2
7.203640299E0,8.315056562E-3,1.205446571E-1,1.852512360E-2
7.219570475E0,2.482813597E-2,1.128583550E-1,2.088356018E-2
7.235531169E0,7.804349065E-3,1.457527131E-1,1.845264435E-2
7.251552897E0,7.521450520E-3,1.251960397E-1,3.037738800E-2
7.267544108E0,2.622082829E-3,1.379353702E-1,3.751182556E-2
7.283535319E0,-2.090379596E-3,1.270879209E-1,2.070617676E-2
7.299496012E0,-1.875758171E-3,1.329426020E-1,1.826572418E-2
7.315487223E0,1.709453762E-2,1.365896910E-1,3.259277344E-2
7.331447917E0,1.758188009E-4,1.288781017E-1,3.831863403E-3
7.347408610E0,1.726746559E-4,1.089967117E-1,6.192207336E-3
7.363430339E0,1.943653822E-2,1.243436709E-1,6.151199341E-3
7.379391032E0,1.711988449E-2,1.424092203E-1,3.005695343E-2
7.395382243E0,9.605363011E-3,1.233007908E-1,2.762222290E-2
7.411342936E0,1.883175969E-2,9.834574163E-2,1.562404633E-2
7.427273112E0,1.412904263E-2,1.183232293E-1,6.052970886E-3
7.443294840E0,2.408117056E-3,1.105865091E-1,1.560020447E-2
7.459194499E0,1.295179129E-2,1.238355935E-1,3.586769104E-3
7.475185710E0,-6.782263517E-4,1.108058766E-1,1.073074341E-2
7.491115885E0,-4.225224257E-4,1.195486635E-1,2.506637573E-2
7.507046061E0,1.393130422E-2,1.285156012E-1,3.462028503E-2
7.523067790E0,1.130439341E-2,1.291013211E-1,1.785087585E-2
7.538997965E0,4.044830799E-3,1.127195209E-1,3.459644318E-2
7.554989176E0,1.357077062E-2,1.243982762E-1,3.936672211E-2
7.570949870E0,1.076298952E-2,1.386152208E-1,8.232116699E-3
7.586880046E0,9.745508432E-4,9.852902591E-2,2.258777618E-2
7.602840739E0,1.053845882E-2,1.014525890E-1,1.778793335E-2
7.618770915E0,7.819324732E-3,1.231856868E-1,3.932571411E-2
7.634731608E0,5.185201764E-3,1.162624881E-1,2.495193481E-2
7.650692301E0,7.243007421E-3,1.192094386E-1,3.397941589E-3
7.666591960E0,2.588197589E-2,1.148697436E-1,3.691291809E-2
7.682613688E0,2.049908042E-2,1.154934615E-1,3.212261200E-2
7.698574381E0,1.272150874E-2,1.190644205E-1,2.494144440E-2
7.714535075E0,-1.935943961E-3,1.135714874E-1,-3.787994385E-3
7.730495768E0,2.815425396E-4,9.400177002E-2,2.015399933E-2
7.746425944E0,2.176149189E-2,1.105499268E-1,2.733707428E-2
7.762417155E0,2.750605345E-3,1.313371956E-1,2.254295349E-2
7.778347331E0,-6.765663624E-3,1.066759750E-1,2.493190765E-2
7.794338542E0,-1.690968871E-3,1.274560988E-1,2.013683319E-2
7.810268717E0,1.522617042E-2,1.243781298E-1,3.372192383E-3
7.826229411E0,1.772508025E-2,1.187435165E-1,-3.816604614E-3
7.842251139E0,-1.219451427E-3,1.178802699E-1,3.927326202E-2
7.858181315E0,6.241664290E-3,1.074996740E-1,5.123710632E-2
7.874172526E0,2.058234811E-2,1.283908337E-1,2.011013031E-2
7.890133219E0,-1.274425536E-2,1.157779992E-1,1.052761078E-2
7.906032878E0,1.995146275E-3,1.032502726E-1,3.925037384E-2
7.922024089E0,-2.650871873E-3,1.100489199E-1,3.924655914E-2
7.937923747E0,-4.953250289E-3,1.027002633E-1,1.290988922E-2
7.953914958E0,-2.423390746E-3,1.218246967E-1,1.530075073E-2
7.969875651E0,-9.228795767E-3,9.535588324E-2,1.290225983E-2
7.985897380E0,1.497483253E-2,1.212434620E-1,9.250640869E-4
8.001827555E0,8.931010962E-4,1.040136814E-1,2.486133575E-2
8.017727214E0,1.777410507E-2,1.065361276E-1,1.767921448E-2
8.033687907E0,1.076003909E-2,9.692364931E-2,4.401206970E-2
8.049618083E0,1.369327307E-3,1.040339023E-1,1.288414001E-2
8.065548258E0,1.569800079E-2,1.251352429E-1,2.724838257E-2
8.081508952E0,1.337796450E-2,1.009118706E-1,1.048660278E-2
8.097500163E0,-3.291323781E-3,1.127465069E-1,2.724456787E-2
8.113491374E0,4.063963890E-3,1.078509837E-1,3.203010559E-2
8.129421549E0,-2.917647362E-3,1.124697775E-1,1.526737213E-2
8.145443278E0,3.832504153E-3,1.286249608E-1,2.962684631E-2
8.161403971E0,-1.073017716E-3,9.782895446E-2,4.638195038E-2
8.177364665E0,5.843833089E-3,1.142013818E-1,3.441238403E-2
8.193325358E0,2.475985885E-2,9.635201097E-2,2.244091034E-2
8.209347087E0,2.980738878E-3,8.581841737E-2,3.680610657E-2
8.225338298E0,5.468934774E-3,1.019304842E-1,5.671501160E-3
8.241329508E0,3.128498793E-3,8.913668245E-2,3.199863434E-2
8.257320719E0,1.250372827E-2,9.369022399E-2,8.051872253E-3
8.273281413E0,-7.157385349E-3,1.104268208E-1,1.523590088E-2
8.289242106E0,-5.384743214E-3,9.145932645E-2,-1.588439941E-2
8.305202799E0,1.810133457E-2,9.150826186E-2,-6.305694580E-3
8.321224528E0,1.308950782E-2,8.949204534E-2,5.665779114E-3
8.337154704E0,8.057236671E-3,7.826324552E-2,3.918552399E-2
8.353145915E0,-1.997455955E-3,9.383892268E-2,8.067131042E-3
8.369076090E0,-1.222109795E-2,8.796218783E-2,2.004528046E-2
8.385006266E0,-3.391534090E-3,7.712767273E-2,1.047801971E-2
8.400966960E0,-3.978461027E-3,7.823993266E-2,1.527309418E-2
8.416866618E0,-2.041414380E-3,6.993559003E-2,1.767253876E-2
8.432857829E0,-1.190438867E-2,6.421034038E-2,3.443527222E-2
8.448818522E0,2.159386873E-3,6.333393604E-2,2.486228943E-2
8.464840251E0,8.740410209E-3,8.201202005E-2,2.726459503E-2
8.480770426E0,8.145734668E-3,6.728194654E-2,2.727317810E-2
8.496700602E0,5.416199565E-3,7.455124706E-2,1.051807404E-2
8.512691813E0,-1.359100640E-2,6.013778970E-2,1.051616669E-2
8.528683024E0,-1.373812556E-3,8.174375445E-2,4.403114319E-2
8.544704753E0,-1.074814796E-2,6.493940949E-2,2.487468719E-2
8.560695964E0,-1.543042064E-2,6.924675405E-2,1.529693604E-2
8.576656657E0,-3.842085600E-3,6.201718003E-2,8.120536804E-3
8.592647868E0,-8.941873908E-3,5.120055005E-2,2.488327026E-2
8.608578044E0,-1.872124523E-2,8.172105253E-2,4.404067993E-2
8.624538737E0,2.745345235E-3,6.362564117E-2,3.207111359E-2
8.640560465E0,7.615953684E-3,6.626791507E-2,2.967643738E-2
8.656521159E0,-1.110900939E-2,7.609184831E-2,2.009391785E-2
8.672512370E0,-3.737002611E-3,5.664763600E-2,1.290893555E-2
8.688473063E0,-1.817236096E-2,4.723773152E-2,4.403400421E-2
8.704494792E0,7.961422205E-3,6.258434802E-2,4.643154144E-2
8.720486003E0,7.633149624E-3,4.496686533E-2,3.207302094E-2
8.736477214E0,-2.011865377E-3,6.373799592E-2,4.165267944E-2
8.752498942E0,2.936139703E-3,6.297739595E-2,1.771068573E-2
8.768429118E0,3.095775843E-3,8.055879921E-2,4.165077209E-2
8.784420329E0,7.247626781E-4,4.782973230E-2,2.249813080E-2
8.800411540E0,2.783849835E-3,5.581472814E-2,1.292705536E-2
8.816311198E0,2.362459898E-3,4.982025549E-2,2.969360352E-2
8.832302409E0,-1.219394803E-2,6.346870959E-2,2.012252808E-2
8.848263102E0,-7.853344083E-3,5.273059011E-2,2.253055573E-2
8.864284831E0,-1.265275478E-2,4.604972899E-2,4.887962341E-2
8.880276042E0,-7.595062256E-3,7.556143403E-2,2.973937988E-2
8.896267253E0,9.849280119E-3,5.819771439E-2,3.453254700E-2
8.912197428E0,1.473015547E-2,5.744719878E-2,5.129814148E-2
8.928188639E0,2.668499947E-4,5.865476280E-2,2.257347107E-2
8.944179850E0,7.516294718E-3,6.349606812E-2,8.217811584E-3
8.960171061E0,-4.246711731E-3,7.244503498E-2,3.696346283E-2
8.976162272E0,1.277536154E-3,5.520518869E-2,4.895877838E-2
8.992153483E0,5.976259708E-4,4.622197151E-2,2.026462555E-2
9.008114176E0,4.861041903E-3,4.708239809E-2,1.073455811E-2
9.024013835E0,-5.638003349E-3,3.115788475E-2,3.711509705E-2
9.040005046E0,-7.760286331E-3,5.039586499E-2,2.039337158E-2
9.055965739E0,-1.275859028E-2,5.855502188E-2,4.434680939E-2
9.071956950E0,1.312172413E-2,5.355618522E-2,2.519798279E-2
9.087917643E0,1.004859805E-3,6.429828703E-2,8.450508118E-3
9.103939372E0,1.831018925E-2,6.398070604E-2,4.679203033E-2
9.119869548E0,-4.112198949E-3,6.682552397E-2,1.093387604E-2
9.135891276E0,-3.217726946E-3,4.158274084E-2,1.819324493E-2
9.151851969E0,-4.661440849E-3,3.726024181E-2,2.305698395E-2
9.167843180E0,-6.672173738E-3,6.577331573E-2,1.113605499E-2
9.183834391E0,-1.593936980E-2,5.043660104E-2,2.551460266E-2
9.199825602E0,-1.339102536E-2,5.992160738E-2,2.311801910E-2
9.215725260E0,-6.266713142E-3,5.593527853E-2,3.028106689E-2
9.231716471E0,3.691121936E-3,4.575916380E-2,4.224014282E-2
9.247677165E0,-3.009214997E-3,4.115636647E-2,1.832389832E-2
9.263637858E0,-1.187084615E-2,5.559346825E-2,2.316474915E-2
9.279568034E0,-1.123420149E-2,3.719356656E-2,1.844215393E-2
9.295528727E0,-1.570126414E-2,2.959805727E-2,3.765201569E-2
9.311519938E0,-3.500163555E-3,3.672442585E-2,8.952140808E-3
9.327480631E0,-1.060019433E-2,3.421898186E-2,1.373767853E-2
9.343502360E0,-1.298502833E-2,3.157286346E-2,3.767585754E-2
9.359402018E0,-2.022935450E-2,1.980207860E-2,5.204486847E-2
9.375393229E0,-1.304689795E-2,3.946042806E-2,3.768730164E-2
9.391353923E0,1.352056116E-2,4.047741741E-2,3.291034698E-2
9.407314616E0,-1.284882426E-2,2.763675898E-2,1.377868652E-2
9.423336344E0,-7.795967162E-3,2.910793573E-2,4.252719879E-2
9.439266520E0,-1.493573189E-2,4.715666175E-3,4.494953156E-2
9.455257731E0,-7.663950324E-3,2.643749118E-3,3.301811218E-2
9.471218424E0,-2.749644220E-3,1.979914308E-2,2.587699890E-2
9.487148600E0,-1.469907165E-2,-1.674130559E-3,1.154994965E-2
9.503170329E0,1.162762195E-2,7.167473435E-3,-9.972572327E-3
9.519069987E0,1.647182554E-2,3.807321191E-3,1.638603210E-2
9.535061198E0,-2.725273371E-3,1.100063324E-3,1.163196564E-2
9.551021891E0,-7.541604340E-3,1.468926668E-2,1.884174347E-2
9.566982585E0,-1.009514928E-2,-7.696807384E-3,2.844715118E-2
9.583004313E0,-9.990647435E-3,5.742564797E-3,3.325843811E-2
9.598903971E0,-7.662124932E-3,9.810402989E-3,3.089237213E-2
9.614925700E0,-5.006596446E-3,1.050768793E-2,4.530620575E-2
9.630855876E0,-1.441944391E-2,-2.328649163E-2,2.622985840E-2
9.646816569E0,-2.400542796E-2,-2.558025718E-2,1.674079895E-2
9.662838298E0,-1.195099205E-2,-2.129594982E-2,3.118324280E-2
9.678829508E0,-2.307645977E-3,-8.904606104E-3,2.888679504E-2
9.694790202E0,-2.364449203E-3,-2.329094708E-2,3.381538391E-2
9.710750895E0,-1.447908580E-2,-2.305150032E-2,-6.733894348E-3
9.726711589E0,-1.452842355E-2,-1.443544030E-2,2.973556519E-3
9.742702799E0,-9.744144976E-3,-1.967515051E-2,1.743125916E-2
9.758724528E0,2.463795245E-3,-3.762578964E-2,3.142356873E-3
9.774685221E0,-4.701174796E-3,-3.443136811E-2,2.954959869E-2
9.790645915E0,4.656568170E-3,-4.332688451E-2,3.201580048E-2
9.806576090E0,-1.220034808E-2,-2.271871269E-2,4.407596588E-2
9.822506266E0,-4.862792790E-3,-4.326640069E-2,5.133533478E-2
9.838497477E0,-2.382656932E-2,-4.519444704E-2,1.548767090E-2
9.854458171E0,-1.167538762E-2,-3.887346387E-2,2.988719940E-2
9.870418864E0,-6.949685514E-3,-3.896929324E-2,2.509689331E-2
9.886349040E0,-7.209859788E-3,-3.783619404E-2,1.070499420E-2
9.902279215E0,-4.878163338E-3,-4.408699274E-2,2.024745941E-2
9.918300944E0,-1.914873719E-4,-4.991908371E-2,2.022457123E-2
9.934200602E0,-9.723491967E-3,-3.939196467E-2,3.461265564E-2
9.950191813E0,-9.686745703E-3,-4.841043055E-2,2.510452271E-2
9.966121989E0,-2.408060431E-2,-4.755453765E-2,-8.336067200E-3
9.982143717E0,-2.412202954E-2,-6.924739480E-2,3.720855713E-2
9.998134928E0,-9.882993996E-3,-5.470736325E-2,1.087856293E-2
1.001412614E1,2.132236958E-3,-6.421270967E-2,3.242778778E-2
1.003011735E1,-7.309339941E-3,-6.712189317E-2,4.683685303E-2
1.004607804E1,-1.647707075E-2,-6.049221754E-2,3.969573975E-2
1.006200822E1,-2.100577950E-2,-6.268359721E-2,3.502941132E-2
1.007802995E1,5.946382880E-4,-6.494882703E-2,3.754806519E-2
1.009399064E1,-6.599172950E-3,-4.962471128E-2,2.572822571E-2
1.010995134E1,-4.261672497E-3,-6.626573205E-2,1.149463654E-2
1.012591203E1,7.896274328E-3,-6.056082249E-2,3.552436829E-2
1.014184220E1,-1.341039687E-2,-5.392864347E-2,3.317642212E-2
1.015783342E1,-2.310982347E-2,-7.120865583E-2,4.280662537E-2
1.017376359E1,-3.938525915E-3,-7.487308979E-2,-2.585411072E-3
1.018975480E1,-3.652185202E-3,-6.246528029E-2,4.065608978E-2
1.020571550E1,-5.956806242E-3,-5.703839660E-2,4.799270630E-2
1.022173722E1,-3.329493105E-3,-6.758782268E-2,2.423000336E-2
1.023763688E1,-1.528435200E-2,-7.481986284E-2,5.291938782E-3
1.025365861E1,-1.519483328E-2,-7.948872447E-2,1.269817352E-2
1.026961930E1,-1.235522330E-2,-6.220909953E-2,2.004241943E-2
1.028564103E1,-1.665130258E-4,-6.566733122E-2,3.931236267E-2
1.030163224E1,-4.600659013E-3,-7.075098157E-2,2.987766266E-2
1.031762345E1,-1.900590211E-2,-7.263693213E-2,1.808071136E-2
1.033358415E1,-9.298123419E-3,-8.390200138E-2,2.305126190E-2
1.034957536E1,-1.378700882E-2,-7.519143820E-2,1.360416412E-2
1.036550553E1,-8.729346097E-3,-8.053869009E-2,2.084541321E-2
1.038146623E1,-1.588534564E-2,-8.290863037E-2,3.042316437E-2
1.039745744E1,-8.874617517E-3,-7.588467002E-2,3.520774841E-2
1.041335710E1,-6.762623787E-3,-7.754236460E-2,3.763103485E-2
1.042934831E1,-3.070505708E-2,-9.149000049E-2,3.293991089E-2
1.044533952E1,-6.412722170E-3,-7.748094201E-2,2.830219269E-2
1.046133073E1,-5.822569132E-3,-8.444982767E-2,4.528045654E-3
1.047732194E1,-1.278380305E-2,-9.911474586E-2,2.384090424E-2
1.049328263E1,-6.611421704E-4,-6.572380662E-2,1.922035217E-2
1.050924333E1,-2.213664353E-2,-8.528679609E-2,2.416896820E-2
1.052520402E1,-6.076097488E-4,-7.112976909E-2,1.476287842E-2
1.054116471E1,-3.581345081E-4,-7.414603233E-2,1.721954346E-2
1.055715592E1,4.817202687E-3,-7.882204652E-2,4.596710205E-4
1.057311662E1,-1.412680745E-2,-8.554655313E-2,9.962081909E-3
1.058907731E1,-1.394594461E-2,-9.176746011E-2,3.384876251E-2
1.060506852E1,-1.151822507E-2,-8.977934718E-2,3.862094879E-2
1.062105973E1,-1.150077581E-2,-1.061696708E-1,2.675342560E-2
1.063695939E1,9.984195232E-3,-8.997309208E-2,2.212524414E-2
1.065298112E1,5.083203316E-3,-1.127415597E-1,1.986789703E-2
1.066894181E1,-4.357829690E-3,-1.084558368E-1,1.275634766E-2
1.068496354E1,1.251431555E-2,-1.056484878E-1,3.201675415E-2
1.070095475E1,7.891245186E-3,-1.078755856E-1,1.056766510E-2
1.071694596E1,-1.113112271E-2,-1.120278835E-1,2.505016327E-2
1.073293717E1,-1.322793216E-2,-1.194781959E-1,2.522563934E-2
1.074886735E1,-6.035409868E-3,-1.147799492E-1,-3.316879272E-3
1.076485856E1,-1.058761030E-2,-1.112115681E-1,8.795738220E-3
1.078084977E1,4.038371146E-3,-1.112660170E-1,3.761863708E-2
1.079684098E1,-2.713441849E-3,-8.261084557E-2,3.052711487E-2
1.081277116E1,-1.203973591E-2,-9.370672703E-2,2.347660065E-2
1.082876237E1,-9.745039046E-3,-9.443113208E-2,2.125263214E-2
1.084469255E1,9.602092206E-3,-1.001250446E-1,2.141475677E-2
1.086056169E1,-2.358294278E-2,-1.146733761E-1,2.400016785E-2
1.087658342E1,6.263703108E-4,-1.174847186E-1,2.418518066E-2
1.089254411E1,-1.690380275E-3,-1.022481620E-1,1.235580444E-2
1.090853532E1,-6.516225636E-3,-1.345405579E-1,1.251411438E-2
1.092449601E1,-8.730947971E-3,-1.186477840E-1,2.226161957E-2
1.094051774E1,1.168072224E-3,-1.128714979E-1,3.927516937E-2
1.095641740E1,-8.181609213E-3,-9.897887707E-2,4.197120667E-2
1.097243913E1,-1.492172480E-2,-1.162208319E-1,8.754730225E-3
1.098839982E1,8.973531425E-3,-1.232691705E-1,1.802444458E-3
1.100442155E1,-2.433130890E-2,-1.201504171E-1,2.109909058E-2
1.102041276E1,-2.464875579E-3,-1.282220483E-1,2.013206482E-3
1.103640397E1,-7.198333740E-3,-1.159578562E-1,1.160335541E-2
1.105236466E1,4.780769348E-3,-1.255465448E-1,2.117919922E-2
1.106832536E1,-4.876494408E-3,-1.255562007E-1,2.836322784E-2
1.108431657E1,-1.160413772E-2,-1.364141703E-1,6.976127625E-3
1.110024675E1,-6.562605500E-3,-1.391685307E-1,1.687717438E-2
1.111623796E1,-1.621855050E-2,-1.157852113E-1,1.947879791E-2
1.113213761E1,-2.098042518E-2,-1.313512325E-1,1.247119904E-2
1.114812882E1,-1.356601715E-3,-1.219280362E-1,-1.670837402E-3
1.116408952E1,-5.572974682E-3,-1.360462606E-1,5.756378174E-3
1.118001969E1,-7.475763559E-3,-1.311145425E-1,3.712368011E-2
1.119604142E1,-1.429452002E-2,-1.339557171E-1,6.216049194E-3
1.121197160E1,-2.024509013E-3,-1.263526678E-1,6.357192993E-3
1.122796281E1,1.751566678E-2,-1.139578223E-1,2.086353302E-2
1.124389298E1,-8.879877627E-3,-1.243198514E-1,1.917839050E-3
1.125991471E1,1.002795994E-3,-1.061221361E-1,6.903648376E-3
1.127581437E1,-1.083351672E-2,-1.154521704E-1,1.447772980E-2
1.129183610E1,-1.256711781E-3,-1.154521704E-1,9.689331055E-3
1.130779679E1,-2.518950403E-2,-1.111615896E-1,1.936721802E-2
1.132381852E1,-1.303436607E-2,-1.169112325E-1,3.141307831E-2
1.133980973E1,-1.516573131E-2,-1.048198342E-1,3.380966187E-2
1.135580094E1,-1.249150932E-2,-1.060175896E-1,3.626632690E-2
1.137179216E1,-2.514123917E-4,-1.146098375E-1,1.729202271E-2
1.138778337E1,9.562231600E-3,-1.148054004E-1,6.484985352E-4
1.140374406E1,-1.428889483E-2,-1.242517233E-1,-4.134178162E-3
1.141967424E1,-6.853491068E-3,-1.291999221E-1,1.727294922E-2
1.143566545E1,-1.990459859E-3,-1.130841970E-1,2.668476105E-2
1.145159562E1,-1.804411411E-3,-1.161586642E-1,1.706981659E-2
1.146758683E1,-1.134771854E-2,-1.142056584E-1,2.914524078E-2
1.148354753E1,-8.879542351E-3,-1.220430732E-1,-1.886367798E-3
1.149947770E1,-8.987084031E-3,-1.209672093E-1,-2.350330353E-2
1.151549943E1,5.615063012E-3,-1.256994009E-1,4.969596863E-3
1.153142961E1,1.289961487E-2,-1.219382882E-1,1.423645020E-2
1.154742082E1,-1.105397195E-2,-1.210939288E-1,1.642417908E-2
1.156341203E1,-6.286516786E-3,-1.200422645E-1,1.635360718E-2
1.157943376E1,1.030340046E-2,-1.262056828E-1,2.042770386E-3
1.159542497E1,-1.349712163E-2,-1.332920194E-1,9.354591370E-3
1.161141618E1,5.721829832E-3,-1.306466460E-1,9.493827820E-3
1.162734635E1,3.388881683E-3,-1.200711131E-1,-4.818916321E-3
1.164336808E1,8.141040802E-3,-1.333623528E-1,-4.888534546E-3
1.165935929E1,-6.425671279E-3,-1.307404637E-1,2.373027802E-2
1.167531999E1,6.369426847E-4,-1.132406592E-1,3.082656860E-2
1.169125016E1,-4.160225391E-3,-1.211879849E-1,-3.376007080E-4
1.170727189E1,-6.627395749E-3,-1.140471101E-1,-2.608299255E-3
1.172323258E1,2.987176180E-3,-9.391754866E-2,2.390575409E-2
1.173922380E1,-1.867060363E-2,-1.079175472E-1,1.447677612E-2
1.175521501E1,-4.499629140E-3,-1.115683317E-1,1.466846466E-2
1.177114518E1,-1.411222667E-2,-1.442635655E-1,-4.311561584E-3
1.178713639E1,-1.635622233E-2,-1.266057491E-1,6.532669067E-4
1.180309709E1,-1.843906939E-3,-1.144980788E-1,1.036643982E-2
1.181905778E1,-1.159028709E-2,-1.270601153E-1,7.591247559E-4
1.183507951E1,5.119673908E-3,-1.068774462E-1,-4.103660583E-3
1.185100968E1,-6.629504263E-3,-1.151332855E-1,7.806777954E-3
1.186697038E1,7.900506258E-3,-1.064133048E-1,2.717304230E-2
1.188293107E1,-3.495495021E-2,-1.067017913E-1,5.868911743E-3
1.189886125E1,1.286312938E-3,-1.053386927E-1,1.565074921E-2
1.191485246E1,3.747455776E-3,-8.778041601E-2,1.343345642E-2
1.193081315E1,-5.626380444E-3,-1.017144322E-1,-1.753520966E-2
1.194677384E1,1.114907116E-2,-1.031622291E-1,-1.987743378E-2
1.196273454E1,-1.034604013E-2,-1.167371273E-1,2.565670013E-2
1.197872575E1,4.203423858E-3,-9.751838446E-2,2.579402924E-2
1.199471696E1,9.290985763E-3,-9.847271442E-2,-1.916885376E-4
1.201067765E1,4.609189928E-3,-1.063580513E-1,4.693031311E-3
1.202666886E1,-1.441876590E-2,-9.497761726E-2,1.676559448E-2
1.204262956E1,-4.684209824E-3,-1.047947407E-1,2.646541595E-2
1.205859025E1,7.188245654E-3,-9.810698032E-2,7.422447205E-3
1.207458146E1,-2.523437142E-3,-8.800643682E-2,2.666473389E-3
1.209051164E1,-4.978217185E-3,-8.267468214E-2,1.453018188E-2
1.210650285E1,-5.144946277E-3,-8.786356449E-2,1.450920105E-2
1.212246354E1,4.456654191E-3,-9.791040421E-2,1.461982727E-2
1.213848527E1,4.330448806E-3,-8.176684380E-2,1.472473145E-2
1.215441545E1,9.177014232E-3,-9.025907516E-2,5.210876465E-3
1.217031510E1,-1.475305855E-2,-8.805638552E-2,-1.634788513E-2
1.218627580E1,9.040318429E-3,-7.504922152E-2,4.821777344E-2
1.220220597E1,1.851327717E-3,-7.793974876E-2,1.945877075E-2
1.221813615E1,-1.236683875E-2,-7.783764601E-2,1.706886292E-2
1.223406632E1,1.668553799E-2,-9.155201912E-2,2.907466888E-2
1.225008805E1,-2.636380494E-2,-9.806358814E-2,2.776145935E-3
1.226604875E1,-1.414535940E-2,-8.910256624E-2,1.963710785E-2
1.228207048E1,-1.642883569E-2,-8.031463623E-2,2.902793884E-2
1.229806169E1,4.973486066E-4,-7.353144884E-2,2.660846710E-2
1.231405290E1,-8.863240480E-3,-9.134513140E-2,1.231861115E-2
1.233004411E1,3.200583160E-3,-9.114164114E-2,-1.895904541E-3
1.234603532E1,1.271735132E-2,-8.918547630E-2,-1.375293732E-2
1.236199601E1,-1.854905486E-2,-9.362566471E-2,-4.153251648E-3
1.237795671E1,-1.372267306E-2,-8.532357216E-2,2.450180054E-2
1.239394792E1,-1.112402976E-2,-7.838475704E-2,3.166866302E-2
1.240990861E1,3.321528435E-3,-8.565336466E-2,2.222537994E-2
1.242589982E1,1.281680912E-2,-9.090787172E-2,5.721092224E-3
1.244186051E1,-1.681692898E-3,-8.885675669E-2,-1.330852509E-2
1.245779069E1,7.848575711E-3,-8.634293079E-2,9.222030640E-4
1.247381242E1,-2.100968361E-2,-8.192479610E-2,3.174400330E-2
1.248974259E1,-1.371381432E-2,-8.946895599E-2,1.228904724E-2
1.250573380E1,8.171327412E-3,-8.618897200E-2,1.684761047E-2
1.252169450E1,-5.986690521E-3,-8.408874273E-2,1.669025421E-2
1.253759416E1,1.119650900E-3,-8.091604710E-2,-4.949569702E-3
1.255358537E1,5.520127714E-3,-1.013529897E-1,-2.623558044E-3
1.256954606E1,-4.359751940E-3,-9.743511677E-2,9.163856506E-3
1.258553727E1,-4.659563303E-3,-8.220338821E-2,1.373386383E-2
1.260149796E1,9.798176587E-3,-8.793771267E-2,1.819992065E-2
1.261745866E1,-2.088025212E-3,-8.772432804E-2,-1.783561707E-2
1.263348039E1,-6.828092039E-3,-7.321012020E-2,1.795196533E-2
1.264944108E1,-6.829060614E-3,-7.946711779E-2,-6.203651428E-3
1.266540177E1,1.464299113E-2,-5.390751362E-2,3.180122375E-2
1.268133195E1,-4.814594984E-3,-7.497560978E-2,2.917671204E-2
1.269726213E1,-2.368904650E-3,-6.420385838E-2,1.714038849E-2
1.271325334E1,-9.608030319E-3,-9.127247334E-2,9.919166565E-3
1.272921403E1,-2.580285072E-4,-8.585393429E-2,2.643585205E-3
1.274520524E1,9.180083871E-3,-7.919192314E-2,-7.087707520E-3
1.276116593E1,-7.662698627E-3,-5.463689566E-2,2.142238617E-2
1.277712663E1,-2.455636859E-3,-7.768493891E-2,9.241104126E-3
1.279314836E1,-9.685657918E-3,-6.500691175E-2,1.722335815E-3
1.280907853E1,-3.937259316E-4,-6.694146991E-2,-3.531455994E-3
1.282506974E1,-9.684786201E-4,-5.942040682E-2,7.862091064E-3
1.284099992E1,-1.815602183E-2,-5.929356813E-2,1.446819305E-2
1.285693009E1,-4.033461213E-3,-5.332577229E-2,3.310680389E-2
1.287292130E1,-2.340865880E-2,-4.412144423E-2,2.067184448E-2
1.288885148E1,-9.101025760E-3,-2.028918266E-2,4.188632965E-2
1.290484269E1,-1.373966038E-2,-3.629601002E-2,-6.183624268E-3
1.292077287E1,5.212478340E-3,-4.113650322E-2,2.004432678E-2
1.293664201E1,-1.622354984E-2,-3.938433528E-2,-8.822441101E-3
1.295263322E1,1.256078482E-2,-4.019507766E-2,1.976490021E-2
1.296859391E1,2.637974918E-3,-4.106572270E-2,5.258560181E-3
1.298458512E1,-1.676498353E-2,-3.696972132E-2,-2.057075500E-3
1.300051530E1,-2.609565854E-4,-4.085916281E-2,1.214313507E-2
1.301644548E1,1.914404333E-3,-4.306045175E-2,2.370834351E-3
1.303243669E1,-5.391143262E-3,-4.254576564E-2,1.894950867E-2
1.304836686E1,-4.483461380E-4,-3.421548009E-2,1.640129089E-2
1.306435807E1,-5.233041942E-3,-3.285676241E-2,1.146984100E-2
1.308028825E1,-5.255527794E-3,-9.575903416E-3,8.948326111E-3
1.309621842E1,4.235334694E-3,-1.563403010E-2,3.034687042E-2
1.311224015E1,-2.963669598E-3,-7.575064898E-3,-1.290893555E-2
1.312813981E1,1.592038572E-2,-2.666258812E-2,1.563549042E-2
1.314413102E1,8.441232145E-3,-3.500670195E-2,1.061439514E-2
1.316009172E1,9.199678898E-4,-2.336978912E-2,-4.042625427E-3
1.317599137E1,-1.139837503E-2,-1.608505845E-2,9.965896606E-3
1.319198259E1,-6.849154830E-3,-2.361714840E-2,7.382392883E-3
1.320791276E1,-3.747269511E-4,-1.669526100E-2,1.626396179E-2
1.322387345E1,-1.047528535E-2,-1.863750815E-2,-2.970027924E-2
1.323983415E1,-8.546501398E-3,-2.090570331E-2,1.532459259E-2
1.325573380E1,7.316842675E-4,-6.076395512E-3,-6.658554077E-3
1.327172502E1,1.208484173E-2,-7.985323668E-3,1.687240601E-2
1.328768571E1,-1.007999480E-2,1.330763102E-3,1.173782349E-2
1.330364640E1,-1.745108515E-2,-5.008101463E-3,2.586364746E-2
1.331960710E1,6.429277360E-3,-1.034101844E-2,2.811336517E-2
1.333556779E1,-8.056305349E-3,-1.764339209E-2,2.086544037E-2
1.335158952E1,3.795109689E-3,-8.593440056E-3,1.839447021E-2
1.336758073E1,-8.391276002E-3,5.917578936E-3,-3.271102905E-3
1.338357194E1,-3.832265735E-3,-7.830873132E-3,3.247737885E-2
1.339953263E1,-4.240565002E-3,-1.218140125E-3,-1.169204712E-3
1.341555436E1,2.850905061E-3,-1.574273407E-2,8.345603943E-3
1.343145402E1,-1.644845307E-2,-1.166160405E-2,8.330345154E-3
1.344747575E1,2.659492195E-3,1.748576760E-3,-1.084518433E-2
1.346343644E1,-1.178953797E-2,-1.544368267E-2,-1.570034027E-2
1.347945817E1,-1.430724561E-2,5.051642656E-4,8.111000061E-3
1.349544938E1,2.292379737E-3,-1.686556637E-2,-1.600742340E-2
1.351144059E1,-1.012444496E-2,-3.144547343E-3,2.452659607E-2
1.352740129E1,3.838956356E-3,1.601576805E-3,1.001262665E-2
1.354339250E1,-8.346818388E-3,4.145905375E-3,2.184104919E-2
1.355935319E1,1.548595726E-2,1.011990011E-2,1.214599609E-2
1.357531388E1,-3.703512251E-3,1.686860621E-2,-2.319335938E-3
1.359133561E1,-8.624441922E-3,1.882977784E-2,-2.415657043E-3
1.360726579E1,8.799284697E-4,-4.845306277E-3,5.017471313E-2
1.362325700E1,-8.730590343E-3,-8.904188871E-3,1.179599762E-2
1.363921769E1,-1.338464022E-2,-1.004919410E-3,-7.430076599E-3
1.365523942E1,-8.852310479E-3,1.523965597E-2,1.642417908E-2
1.367113908E1,-1.661859453E-3,1.537986100E-2,1.395416260E-2
1.368716081E1,5.375020206E-3,-4.836887121E-3,3.065967560E-2
1.370312150E1,-6.795108318E-3,8.325397968E-3,9.095191956E-3
1.371911271E1,5.078241229E-3,3.727763891E-3,-1.244831085E-2
1.373507341E1,-2.291031182E-3,1.512753963E-2,4.303932190E-3
1.375106462E1,-9.809046984E-3,1.906062663E-2,-1.729011536E-2
1.376702531E1,-1.019519567E-2,3.347798437E-2,-2.992630005E-3
1.378301652E1,1.577727497E-3,-4.171982408E-3,1.610279083E-2
1.379894670E1,-1.284085959E-2,2.173437923E-2,6.486892700E-3
1.381490739E1,-1.060381532E-3,1.082271338E-2,3.041172028E-2
1.383086808E1,-3.202259541E-3,2.151553333E-2,-5.419731140E-3
1.384682878E1,1.701325178E-3,3.923612833E-2,6.635665894E-3
1.386281999E1,-2.234917134E-2,1.479873061E-2,1.867580414E-2
1.387881120E1,1.673370600E-3,3.884912282E-2,1.631927490E-2
1.389480241E1,1.123617589E-2,3.475278616E-2,1.872539520E-2
1.391073259E1,4.126451910E-3,5.611868948E-2,1.632690430E-2
1.392666276E1,6.397999823E-3,5.570716411E-2,9.139060974E-3
1.394265397E1,-3.208793700E-3,5.469093472E-2,2.352714539E-2
1.395864518E1,8.567817509E-3,6.381338835E-2,-2.432441711E-2
1.397466691E1,-8.701436222E-3,6.618024409E-2,1.877784729E-2
1.399056657E1,-1.412743330E-2,7.538648695E-2,-5.201339722E-3
1.400658830E1,6.739981472E-3,7.907368243E-2,3.545379639E-2
1.402254899E1,3.692954779E-3,9.641597420E-2,1.388549805E-2
1.403857072E1,-1.610197127E-3,1.091392785E-1,2.587413788E-2
1.405456193E1,1.736114919E-2,9.592081606E-2,1.156711578E-2
1.407055314E1,-6.271108985E-3,1.088064834E-1,1.165580750E-2
1.408654435E1,8.460789919E-3,1.110797450E-1,-1.700115204E-2
1.410253556E1,3.673635423E-3,1.152644232E-1,1.415348053E-2
1.411849626E1,1.012545079E-2,1.185320318E-1,2.131938934E-2
1.413445695E1,8.918538690E-3,1.360908747E-1,2.113342285E-3
1.415044816E1,-6.670631468E-3,1.345528960E-1,3.079509735E-2
1.416640885E1,-3.143250942E-4,1.367762983E-1,2.597618103E-2
1.418236955E1,-7.613584399E-3,1.437897682E-1,9.216308594E-3
1.419829972E1,4.206091166E-3,1.162940562E-1,1.163101196E-2
1.421426042E1,-3.195852041E-3,1.332252324E-1,2.121448517E-2
1.423028214E1,9.851306677E-4,1.435154229E-1,9.223937988E-3
1.424621232E1,-8.987434208E-3,1.476096958E-1,4.391670227E-3
1.426217301E1,-4.850268364E-3,1.464223415E-1,9.134292603E-3
1.427810319E1,-1.435071230E-3,1.590304375E-1,3.542613983E-2
1.429400285E1,-9.417861700E-3,1.398610622E-1,2.339553833E-2
1.431002458E1,2.397850156E-3,1.541064531E-1,1.614570618E-2
1.432595475E1,4.973307252E-3,1.523501724E-1,-6.074905396E-4
1.434194596E1,9.734988213E-3,1.383668780E-1,-2.995491028E-3
1.435790666E1,4.894793034E-3,1.498395056E-1,8.969306946E-3
1.437383683E1,4.714250565E-3,1.488388777E-1,8.925437927E-3
1.438985856E1,1.409667730E-2,1.390395463E-1,2.801513672E-2
1.440578874E1,1.940190792E-3,1.397097558E-1,-7.658004761E-4
1.442174943E1,1.856684685E-2,1.520930976E-1,1.833724976E-2
1.443771012E1,-1.523493975E-2,1.394971013E-1,8.672714233E-3
1.445360978E1,1.577271521E-2,1.368043125E-1,1.343250275E-2
1.446963151E1,-5.550757051E-3,1.547640413E-1,-3.394126892E-3
1.448556169E1,6.694048643E-3,1.299683750E-1,1.091003418E-2
1.450155290E1,-9.673327208E-3,1.365835667E-1,8.460044861E-3
1.451751359E1,-9.130150080E-3,1.532638371E-1,8.408546448E-3
1.453353532E1,-4.066482186E-3,1.511744261E-1,2.991390228E-2
1.454946550E1,1.095235348E-3,1.399221569E-1,2.748203278E-2
1.456545671E1,4.135638475E-3,1.385100931E-1,2.026081085E-2
1.458141740E1,4.554972053E-3,1.252506673E-1,-6.108283997E-3
1.459740861E1,-2.277463675E-3,1.292786896E-1,8.232116699E-3
1.461339982E1,1.227994263E-2,1.265279055E-1,3.694152832E-2
1.462939103E1,7.366105914E-3,1.285401583E-1,1.777076721E-2
1.464538224E1,9.247899055E-3,1.312830001E-1,1.537036896E-2
1.466137345E1,2.106428146E-3,1.152015328E-1,2.014827728E-2
1.467733415E1,-6.971672177E-3,1.254417598E-1,9.784698486E-4
1.469326432E1,1.256017387E-2,1.309612691E-1,3.358840942E-3
1.470928605E1,1.040527225E-2,1.291373372E-1,3.925800323E-2
1.472524675E1,-3.097102046E-3,1.393754780E-1,1.290225983E-2
1.474123796E1,2.098582685E-3,1.280623674E-1,2.485942841E-2
1.475716813E1,6.520166993E-3,1.291595250E-1,3.204059601E-2
1.477306779E1,-1.461409777E-2,1.325033605E-1,3.681564331E-2
1.478905900E1,-9.620673954E-3,1.245095879E-1,1.286792755E-2
1.480495866E1,3.668740392E-4,1.163200438E-1,8.859634399E-4
1.482094987E1,-1.958496869E-3,1.302616745E-1,8.067131042E-3
1.483688005E1,-6.460241973E-3,1.340095103E-1,1.045227051E-2
1.485290177E1,1.001134515E-3,1.255830526E-1,2.959728241E-2
1.486880143E1,-6.099678576E-3,1.221521348E-1,8.044242859E-3
1.488482316E1,8.604712784E-3,1.070919037E-1,2.958393097E-2
1.490081437E1,3.977417946E-3,1.218838990E-1,8.440017700E-4
1.491677507E1,1.581367105E-2,1.064214930E-1,2.716922760E-2
1.493276628E1,-3.199987113E-3,8.987584710E-2,-1.563072205E-3
1.494872697E1,-7.867500186E-3,1.140543371E-1,1.280307770E-2
1.496471818E1,1.629352570E-3,1.150035560E-1,3.434658051E-2
1.498070939E1,-5.577802658E-3,9.321714938E-2,1.518440247E-2
1.499667009E1,-1.024443656E-2,1.075531542E-1,1.038742065E-2
1.501263078E1,1.156726480E-2,1.054457799E-1,1.516628265E-2
1.502865251E1,-7.295690477E-3,1.011919230E-1,2.952289581E-2
1.504461320E1,7.106654346E-3,1.019331217E-1,2.233600616E-2
1.506057389E1,4.568755627E-3,1.170868278E-1,1.754570007E-2
1.507650407E1,9.101815522E-3,1.083086729E-1,2.233409882E-2
1.509246476E1,-7.820054889E-3,1.018471792E-1,1.275634766E-2
1.510845597E1,-7.886901498E-3,9.785544872E-2,3.190803528E-2
1.512438615E1,4.039458930E-3,9.391343594E-2,5.569458008E-3
1.514037736E1,3.992959857E-3,1.019040048E-1,1.993274689E-2
1.515633805E1,1.800350845E-3,9.581855685E-2,5.563735962E-3
1.517226823E1,-1.705889404E-2,8.994027972E-2,-1.625061035E-3
1.518825944E1,-1.220225543E-2,8.183540404E-2,1.992225647E-2
1.520418962E1,1.883402467E-2,7.404737920E-2,2.710533142E-2
1.522021134E1,-7.491998374E-3,7.357317954E-2,1.273918152E-2
1.523620256E1,-1.307055354E-4,8.268319070E-2,2.231407166E-2
1.525219377E1,7.307536900E-3,6.588548422E-2,2.949333191E-2
1.526818498E1,4.970848560E-3,8.021321148E-2,1.512718201E-2
1.528414567E1,5.239732563E-3,8.713933825E-2,7.941246033E-3
1.530013688E1,-4.167221487E-3,9.157460928E-2,2.709197998E-2
1.531606706E1,-3.944627941E-3,6.980936229E-2,-6.430625916E-3
1.533199723E1,8.215546608E-3,9.088709205E-2,7.932662964E-3
1.534798844E1,1.053464413E-2,8.574762195E-2,3.426933289E-2
1.536397966E1,2.246281505E-2,6.873197854E-2,7.514953613E-4
1.537990983E1,-3.881253302E-3,8.746350557E-2,3.146171570E-3
1.539584001E1,8.200317621E-3,9.192226827E-2,3.187465668E-2
1.541186174E1,3.588147461E-3,8.455302566E-2,2.229499817E-2
1.542785295E1,-1.139946282E-3,7.469101250E-2,1.750659943E-2
1.544384416E1,6.359711289E-3,7.701756805E-2,2.229022980E-2
1.545977433E1,4.026815295E-3,7.702682912E-2,4.383754730E-2
1.547579606E1,-1.271814853E-2,7.693242282E-2,1.510620117E-2
1.549178727E1,1.373506337E-2,8.383911103E-2,3.186416626E-2
1.550777848E1,2.090469748E-2,8.363056928E-2,1.989269257E-2
1.552373918E1,-7.816553116E-4,7.394547760E-2,3.135681152E-3
1.553966935E1,8.733719587E-3,9.525263309E-2,5.530357361E-3
1.555566056E1,-9.059682488E-4,8.278919756E-2,5.531311035E-3
1.557165177E1,1.098785549E-2,8.504293114E-2,2.947425842E-2
1.558764298E1,-1.034367830E-2,6.811572611E-2,2.707767487E-2
1.560360368E1,8.705943823E-3,9.684993327E-2,2.229022980E-2
1.561956437E1,1.101040840E-2,6.335736066E-2,2.468490601E-2
1.563552507E1,8.495077491E-3,8.983509988E-2,2.468681335E-2
1.565145524E1,1.167863607E-3,8.270927519E-2,1.511192322E-2
1.566744645E1,-1.145578921E-3,9.216803312E-2,1.989841461E-2
1.568343766E1,-5.811125040E-3,7.532369345E-2,2.468585968E-2
1.569942887E1,8.642926812E-3,8.001337945E-2,1.989650726E-2
1.571538957E1,1.072302461E-2,6.343467534E-2,1.750659943E-2
1.573135026E1,8.995607495E-4,9.952547401E-2,1.750946045E-2
1.574737199E1,4.759937525E-3,8.782830089E-2,2.470302582E-2
1.576327165E1,-1.022756100E-3,7.851382345E-2,7.957458496E-3
1.577926286E1,3.029830754E-3,9.331794083E-2,3.909111023E-2
1.579522355E1,1.698812097E-2,7.685938478E-2,2.712535858E-2
1.581112321E1,-1.664140075E-2,8.397121727E-2,1.994323730E-2
1.582714494E1,-2.188153565E-3,6.735498458E-2,1.515388489E-2
1.584310563E1,1.671876013E-2,7.962639630E-2,4.628276825E-2
1.585909684E1,1.967303455E-3,7.029592991E-2,1.516342163E-2
1.587505754E1,8.625224233E-3,8.025527745E-2,3.192901611E-2
1.589092668E1,-8.237607777E-3,6.132923812E-2,3.200531006E-3
1.590691789E1,-3.165632486E-3,8.545833826E-2,4.629325867E-2
1.592287858E1,1.131699979E-2,7.380469143E-2,2.953147888E-2
1.593886979E1,9.268537164E-3,8.857782185E-2,2.473831177E-2
1.595483048E1,4.831910133E-3,8.880645782E-2,3.431129456E-2
1.597076066E1,5.025401711E-3,7.689377666E-2,2.952098846E-2
1.598675187E1,2.763070166E-3,8.122786880E-2,1.515197754E-2
1.600274308E1,1.705697924E-2,7.213599235E-2,2.951717377E-2
1.601870378E1,1.238672435E-2,7.861617208E-2,1.993846893E-2
1.603469499E1,9.776696563E-3,7.347670197E-2,3.191280365E-2
1.605068620E1,9.322494268E-3,8.562861383E-2,2.952575684E-2
1.606661637E1,1.824086905E-2,7.392168045E-2,7.987976074E-3
1.608263810E1,-3.932222724E-3,5.289177969E-2,3.433322906E-2
1.609859880E1,1.218190789E-2,7.537972927E-2,2.955436707E-2
1.611462052E1,-2.411976457E-3,7.138017565E-2,2.477073669E-2
1.613061174E1,1.403909922E-2,6.727936864E-2,3.196048737E-2
1.614660295E1,1.619708538E-2,5.467543006E-2,1.759910583E-2
1.616256364E1,-1.464039087E-4,4.178037494E-2,2.717208862E-2
1.617852433E1,-2.071112394E-4,4.574174434E-2,3.196239471E-2
1.619448503E1,-9.711794555E-3,5.231267214E-2,1.520252228E-2
1.621041520E1,2.350881696E-3,4.922868684E-2,1.759815216E-2
1.622637590E1,9.437844157E-3,7.229401171E-2,2.717685699E-2
1.624230607E1,4.653260112E-3,4.082026705E-2,2.717781067E-2
1.625829728E1,-1.424103975E-4,4.757878929E-2,2.478408813E-2
1.627425798E1,-2.474129200E-3,4.654645175E-2,5.111789703E-2
1.629015763E1,9.578660131E-3,3.509908915E-2,2.477836609E-2
1.630617936E1,6.963565946E-3,3.258696198E-2,8.023262024E-3
1.632210954E1,1.873031259E-3,5.621715635E-2,1.042079926E-2
1.633807023E1,6.146088243E-3,5.222474039E-2,1.760959625E-2
1.635403092E1,2.006343007E-2,4.679326713E-2,2.240085602E-2
1.636999162E1,-1.399797946E-2,4.846504331E-2,3.198242188E-2
1.638598283E1,-6.939634681E-3,2.559315786E-2,3.916454315E-2
1.640194352E1,7.618457079E-3,3.822230920E-2,1.761341095E-2
1.641793473E1,-1.898601651E-3,3.673481196E-2,2.479457855E-2
1.643386491E1,9.566545486E-3,2.231947333E-2,2.958679199E-2
1.644973405E1,1.909047365E-3,3.778403997E-2,5.592727661E-2
1.646572526E1,4.097163677E-3,3.606778756E-2,3.198623657E-2
1.648168595E1,-5.207821727E-3,1.319583040E-2,2.958869934E-2
1.649770768E1,1.441459358E-2,3.883301467E-2,3.437232971E-2
1.651363786E1,-1.778975129E-3,2.560107969E-2,1.281929016E-2
1.652959855E1,3.012880683E-3,3.265484050E-2,1.042747498E-2
1.654558976E1,-1.149316877E-2,2.497525141E-2,2.000808716E-2
1.656151994E1,-1.359529048E-2,4.713259265E-2,2.958583832E-2
1.657751115E1,-1.054345816E-2,3.942808509E-2,4.395008087E-2
1.659338032E1,4.604369402E-3,2.256143093E-2,1.522064209E-2
1.660940205E1,7.813081145E-3,3.610736877E-2,4.395103455E-2
1.662530171E1,-3.044277430E-3,2.847135440E-2,3.437423706E-2
1.664132344E1,-1.379326731E-2,1.264816895E-2,1.522541046E-2
1.665728413E1,2.351389825E-2,1.779599674E-2,1.524066925E-2
1.667327534E1,5.895666778E-3,1.303647459E-2,4.639720917E-2
1.668926655E1,2.582356334E-3,1.282679290E-2,3.342628479E-3
1.670525777E1,-5.757585168E-3,1.289389282E-2,2.492523193E-2
1.672121846E1,-1.198534667E-2,1.618263870E-2,2.735233307E-2
1.673720967E1,-6.274543703E-3,2.323726565E-2,1.301383972E-2
1.675313984E1,8.414521813E-3,1.980326325E-2,4.416656494E-2
1.676910054E1,3.893539310E-3,1.901675761E-2,4.659461975E-2
1.678512227E1,1.376707107E-2,2.538860589E-2,3.944683075E-2
1.680108296E1,-2.789594233E-3,2.667095512E-2,2.750968933E-2
1.681704365E1,-1.746565104E-4,3.305520862E-2,2.036380768E-2
1.683297383E1,-2.196885645E-3,3.270079941E-2,2.998447418E-2
1.684890400E1,1.242484897E-2,3.000476956E-2,1.566600800E-2
1.686492573E1,-1.641325653E-3,2.593893558E-2,2.291011810E-2
1.688082539E1,-8.739523590E-3,2.492307872E-2,3.974342346E-2
1.689681660E1,-5.911730230E-3,6.875842810E-4,3.264522552E-2
1.691274678E1,6.178006530E-3,-5.513072014E-3,2.793312073E-2
1.692864644E1,3.817334771E-3,1.984021068E-2,1.840972900E-2
1.694466816E1,1.105631888E-2,1.600526273E-2,2.563953400E-2
1.696062886E1,1.137632132E-2,4.765897989E-3,3.765392303E-2
1.697662007E1,-3.359392285E-4,1.553303003E-2,3.052139282E-2
1.699258076E1,-9.817503393E-3,1.291957498E-2,3.537940979E-2
1.700844990E1,-4.908099771E-3,3.059105575E-2,2.110385895E-2
1.702447163E1,4.882648587E-3,1.495663822E-2,9.229660034E-3
1.704040181E1,2.203608304E-2,1.512739062E-2,2.846336365E-2
1.705636250E1,-1.135189086E-2,1.416613162E-2,2.150535583E-3
1.707232319E1,-4.322633147E-3,1.880884171E-3,2.365303040E-2
1.708828389E1,5.051434040E-3,6.387531757E-3,2.839756012E-2
1.710430562E1,-9.560130537E-3,9.996071458E-3,2.838039398E-2
1.712029683E1,-4.964895546E-3,-5.138441920E-3,3.798770905E-2
1.713628804E1,2.216875553E-3,-3.893718123E-3,2.128982544E-2
1.715221821E1,-2.382531762E-3,-8.347302675E-3,2.224922180E-3
1.716823994E1,-1.201207191E-2,-2.018903196E-2,4.301738739E-2
1.718413960E1,-1.441038400E-2,-3.375224769E-2,-2.413749695E-3
1.720013081E1,1.671780646E-2,-3.379212320E-2,-2.098083496E-5
1.721612202E1,-1.698110253E-2,-1.971033216E-2,4.781627655E-2
1.723214375E1,6.642371416E-3,-3.163065016E-2,4.059410095E-2
1.724813496E1,-7.938921452E-3,-3.145875037E-2,2.862834930E-2
1.726412617E1,-1.044110209E-2,-4.279486835E-2,2.389812469E-2
1.728008687E1,1.117952168E-2,-3.219768405E-2,4.316043854E-2
1.729601704E1,-1.045580208E-2,-3.608608246E-2,1.933002472E-2
1.731203877E1,8.522458375E-3,-6.835314631E-2,1.700973511E-2
1.732802998E1,-5.816027522E-3,-5.994941294E-2,3.139972687E-2
1.734402119E1,-1.066968590E-2,-5.820579827E-2,3.617572784E-2
1.735998189E1,-8.519798517E-3,-5.233004689E-2,1.460552216E-2
1.737597310E1,5.745753646E-3,-4.326635599E-2,2.896118164E-2
1.739193379E1,-1.484207809E-3,-7.240338624E-2,5.533695221E-2
1.740786397E1,-1.478873193E-3,-6.808580458E-2,2.190589905E-2
1.742388569E1,-8.748084307E-3,-7.992374897E-2,7.644653320E-3
1.743984639E1,-8.905090392E-3,-9.078082442E-2,-1.854896545E-3
1.745583760E1,-6.772473454E-3,-7.347533107E-2,1.970863342E-2
1.747182881E1,-1.163526624E-2,-1.027436107E-1,3.406238556E-2
1.748785054E1,-1.173180342E-2,-8.051207662E-2,4.365539551E-2
1.750378071E1,-6.903499365E-3,-8.053344488E-2,3.652286530E-2
1.751980244E1,-2.850864083E-2,-8.921056986E-2,3.659629822E-2
1.753576314E1,-1.156841218E-2,-8.443461359E-2,1.515388489E-2
1.755178486E1,-9.059451520E-3,-9.469929338E-2,3.439998627E-2
1.756777608E1,-1.134197414E-2,-9.135019779E-2,3.687000275E-2
1.758376729E1,-1.381282508E-2,-9.638492763E-2,2.495098114E-2
1.759975850E1,-1.707583666E-3,-8.253711462E-2,2.978229523E-2
1.761574971E1,-8.745267987E-3,-9.071657062E-2,4.184246063E-2
1.763171040E1,5.734674633E-3,-8.287760615E-2,3.479194641E-2
1.764767110E1,-1.331330091E-2,-1.157173365E-1,6.197929382E-3
1.766369282E1,-1.322805136E-2,-1.076164842E-1,1.352500916E-2
1.767962300E1,-1.288697124E-3,-1.024724245E-1,1.844787598E-2
1.769561421E1,1.060730219E-2,-1.237534583E-1,1.823425293E-3
1.771157490E1,-6.110884249E-3,-1.143321097E-1,2.589225769E-2
1.772759663E1,-1.322674751E-2,-1.098144650E-1,5.474662781E-2
1.774352681E1,-8.757121861E-3,-9.063071012E-2,4.770374298E-2
1.775942647E1,-8.724845946E-3,-1.229242086E-1,3.111648560E-2
1.777541768E1,1.283602417E-2,-1.139876544E-1,2.576828003E-3
1.779137837E1,-1.569984853E-2,-1.129432023E-1,2.190303802E-2
1.780727803E1,-1.566727459E-2,-9.290960431E-2,9.390163422E-2
1.782329976E1,1.606762409E-3,-8.983543515E-2,2.702808380E-2
1.783922993E1,-2.003356814E-2,-1.046677232E-1,2.484893799E-2
1.785522114E1,-1.513562351E-2,-1.217835546E-1,3.943347931E-2
1.787118184E1,-5.575701594E-3,-9.253439307E-2,2.285003662E-2
1.788711201E1,-1.025150716E-2,-1.117734313E-1,1.342964172E-2
1.790313374E1,1.135039330E-2,-1.048844755E-1,8.793830872E-3
1.791909444E1,-1.012814790E-2,-1.072533429E-1,3.768825531E-2
1.793508565E1,-5.092911422E-3,-1.185034513E-1,2.351474762E-2
1.795101582E1,-9.595021605E-3,-1.229920387E-1,2.143859863E-3
1.796691548E1,-9.479209781E-3,-1.244932115E-1,9.444236755E-3
1.798293721E1,-7.115788758E-3,-9.123873711E-2,4.055881500E-2
1.799883687E1,-1.442033798E-2,-1.120582521E-1,2.613449097E-2
1.801482808E1,-7.118880749E-3,-1.181607246E-1,1.890468597E-2
1.803072774E1,-4.578329623E-3,-1.061877310E-1,4.523754120E-2
1.804665791E1,2.832956612E-3,-9.355351329E-2,5.252838135E-2
1.806267964E1,1.728420705E-2,-9.796857834E-2,1.671504974E-2
1.807864033E1,-1.147788018E-2,-1.287872493E-1,3.836250305E-2
1.809463154E1,-9.129285812E-3,-1.173984110E-1,3.364086151E-2
1.811059224E1,-2.285707742E-2,-1.209281087E-1,4.573917389E-2
1.812652241E1,1.599818468E-3,-1.214375794E-1,3.631687164E-2
1.814251362E1,-5.175702274E-3,-1.174916327E-1,2.209663391E-2
1.815844380E1,2.185970545E-3,-1.091380119E-1,3.659629822E-2
1.817443501E1,-2.400224656E-2,-1.229901612E-1,2.473640442E-2
1.819036519E1,-1.411282271E-2,-1.096950769E-1,2.248382568E-2
1.820626484E1,-1.159660518E-2,-1.037685573E-1,4.886341095E-2
1.822228657E1,1.014905423E-2,-1.045888364E-1,3.225708008E-2
1.823818623E1,-1.123041660E-2,-1.086681187E-1,2.529335022E-2
1.825417744E1,-8.592754602E-3,-1.140594780E-1,3.503704071E-2
1.827013814E1,3.597863019E-3,-1.123615205E-1,1.594924927E-2
1.828606831E1,-8.383028209E-3,-1.096382439E-1,2.544212341E-2
1.830202900E1,-6.073892117E-3,-8.298552036E-2,3.503322601E-2
1.831792866E1,-8.689597249E-3,-8.989775181E-2,2.317237854E-2
1.833388936E1,-1.836900413E-2,-1.097553372E-1,2.334213257E-2
1.834981953E1,5.527891219E-3,-1.143289208E-1,1.387405396E-2
1.836571919E1,-1.132857800E-2,-1.284185648E-1,3.064537048E-2
1.838174092E1,-6.615296006E-3,-1.287975013E-1,4.260158539E-2
1.839764058E1,-4.219897091E-3,-1.136344373E-1,4.263496399E-2
1.841360127E1,-1.160425693E-2,-1.295880377E-1,3.080081940E-2
1.842956196E1,-1.894111931E-2,-1.270053387E-1,2.622413635E-2
1.844558369E1,-7.033206522E-3,-1.203476191E-1,4.858970642E-3
1.846151387E1,-9.506955743E-3,-1.298069954E-1,1.215076447E-2
1.847753560E1,-9.255506098E-3,-1.330926716E-1,2.907657623E-2
1.849349629E1,-2.068531513E-2,-1.132630408E-1,4.367446899E-2
1.850948750E1,8.446201682E-3,-1.157743633E-1,3.440856934E-2
1.852544819E1,-3.364942968E-3,-1.242810190E-1,2.999210358E-2
1.854143941E1,-2.010694891E-2,-1.233260632E-1,1.828575134E-2
1.855740010E1,1.486510038E-3,-1.177663803E-1,2.572631836E-2
1.857339131E1,-1.974398643E-2,-1.109091341E-1,1.407623291E-2
1.858932149E1,-9.651109576E-3,-1.340340972E-1,2.391529083E-2
1.860519063E1,-1.664821804E-2,-1.049731672E-1,3.134346008E-2
1.862121236E1,2.417258918E-3,-1.092600226E-1,3.160381317E-2
1.863711201E1,7.135324180E-3,-1.264831126E-1,1.027011871E-2
1.865310322E1,-4.922159016E-3,-1.085498631E-1,1.523780823E-2
1.866906392E1,-2.431106567E-2,-9.293022752E-2,2.727413177E-2
1.868508565E1,-1.696724445E-2,-1.227571964E-1,2.482414246E-2
1.870101582E1,-2.602040768E-4,-1.199905872E-1,4.160118103E-2
1.871703755E1,-1.198133826E-2,-1.035900414E-1,4.182147980E-2
1.873299824E1,-4.577189684E-3,-1.174824834E-1,2.532768250E-2
1.874901997E1,-6.980516016E-3,-1.296650171E-1,2.556324005E-2
1.876501118E1,-1.667366177E-2,-1.031091809E-1,3.048801422E-2
1.878100239E1,2.462878823E-3,-1.063001752E-1,1.633071899E-2
1.879696309E1,-9.405650198E-3,-1.098777652E-1,3.806495667E-2
1.881295430E1,7.362104952E-3,-1.063019037E-1,4.304218292E-2
1.882891499E1,-6.964944303E-3,-1.167743802E-1,1.212406158E-2
1.884490620E1,-6.788805127E-3,-1.019362211E-1,9.881019592E-3
1.886092793E1,-9.136855602E-3,-8.764058352E-2,3.634357452E-2
1.887688862E1,-6.446950138E-3,-1.159263849E-1,2.452087402E-2
1.889287984E1,3.304116428E-3,-9.991180897E-2,1.276779175E-2
1.890884053E1,9.736418724E-4,-1.078986526E-1,1.537990570E-2
1.892477070E1,-4.031322896E-3,-1.074662209E-1,2.511501312E-2
1.894073140E1,5.708709359E-4,-1.053497195E-1,2.523422241E-2
1.895672261E1,-4.292130470E-3,-1.058480144E-1,1.815891266E-2
1.897271382E1,-1.372054219E-2,-1.199971437E-1,3.266716003E-2
1.898867451E1,-6.183326244E-3,-1.073634028E-1,3.044033051E-2
1.900469624E1,-1.316826046E-2,-1.059271693E-1,1.854896545E-2
1.902059590E1,-5.965538323E-3,-8.435392380E-2,2.094364166E-2
1.903661763E1,-3.409206867E-3,-9.945672750E-2,4.484272003E-2
1.905257832E1,-3.422516584E-2,-9.937602282E-2,3.287315369E-2
1.906856953E1,-5.372092128E-3,-7.906943560E-2,4.012012482E-2
1.908456074E1,9.201616049E-3,-9.353655577E-2,1.869964600E-2
1.910055195E1,9.306810796E-3,-1.047534347E-1,2.606010437E-2
1.911651265E1,9.203135967E-3,-1.079931855E-1,4.600524902E-3
1.913250386E1,1.998111606E-3,-1.108135581E-1,2.133655548E-2
1.914846455E1,-2.866901457E-3,-1.039112210E-1,1.639652252E-2
1.916442524E1,-2.950906754E-3,-1.022127867E-1,3.777027130E-2
1.918044697E1,-3.107942641E-3,-9.988903999E-2,4.495048523E-2
1.919640767E1,-7.935762405E-4,-9.453308582E-2,4.511928558E-2
1.921236836E1,8.831091225E-3,-1.005137563E-1,2.377605438E-2
1.922829854E1,4.060424864E-3,-9.122359753E-2,1.910877228E-2
1.924422871E1,8.639961481E-3,-1.233116388E-1,2.145004272E-2
1.926018941E1,-1.296423376E-2,-1.083365083E-1,3.571319580E-2
1.927611958E1,-1.292187721E-2,-1.199956536E-1,3.559398651E-2
1.929211079E1,-3.276757896E-3,-1.070767045E-1,3.311729431E-2
1.930804097E1,-5.542308092E-3,-1.102392077E-1,1.165962219E-2
1.932391011E1,-8.075542748E-3,-1.107274294E-1,3.584957123E-2
1.933993184E1,3.683581948E-3,-1.106466651E-1,1.684093475E-2
1.935589253E1,1.180768013E-3,-1.114535332E-1,2.411651611E-2
1.937188374E1,-8.680239320E-3,-9.644979239E-2,1.457881927E-2
1.938787495E1,1.026917249E-2,-1.045566201E-1,3.860855103E-2
1.940380513E1,1.008253545E-2,-1.015482545E-1,5.075645447E-2
1.941979634E1,7.569469512E-3,-1.188120246E-1,2.467346191E-2
1.943572652E1,2.727597952E-3,-8.423155546E-2,2.966594696E-2
1.945171773E1,-2.031251788E-3,-1.053593755E-1,2.983188629E-2
1.946764790E1,-9.247303009E-3,-1.051640511E-1,1.562118530E-2
1.948351704E1,2.754114568E-3,-9.604066610E-2,1.573657990E-2
1.949953877E1,-2.327637374E-2,-1.085806489E-1,3.978633881E-2
1.951549946E1,8.015587926E-3,-9.453397989E-2,1.117801666E-2
1.953149068E1,-3.862366080E-3,-1.095821857E-1,4.001140594E-2
1.954745137E1,6.192475557E-4,-1.013312340E-1,3.050231934E-2
1.956338154E1,-1.618864387E-2,-9.405118227E-2,3.529739380E-2
1.957934224E1,3.049924970E-3,-1.048104167E-1,2.564811707E-2
1.959524190E1,7.826536894E-4,-1.037959456E-1,2.541923523E-2
1.961123311E1,-1.132166386E-2,-8.244717121E-2,5.624580383E-2
1.962719380E1,3.031820059E-3,-9.494739771E-2,4.663753510E-2
1.964321553E1,7.706917822E-3,-9.943979979E-2,3.004074097E-2
1.965917622E1,-1.134520769E-2,-1.064062715E-1,4.934978485E-2
1.967519795E1,-4.150331020E-3,-9.708827734E-2,2.060413361E-2
1.969112813E1,2.929568291E-3,-9.179079533E-2,2.992534637E-2
1.970705830E1,-1.907214522E-3,-1.266247034E-1,4.153537750E-2
1.972308003E1,-1.161927730E-2,-9.095257521E-2,6.518268585E-2
1.973897969E1,1.475393027E-2,-9.267336130E-2,4.832363129E-2
1.975500142E1,7.549174130E-3,-1.050313711E-1,2.928733826E-2
1.977096211E1,-9.187698364E-3,-1.040423512E-1,5.683898926E-3
1.978692280E1,2.838574350E-3,-1.160430908E-1,3.215885162E-2
1.980288350E1,-2.105690539E-3,-1.015846729E-1,-1.352310181E-3
1.981887471E1,2.456888556E-3,-1.003672481E-1,1.998806000E-2
1.983483540E1,6.970562041E-3,-1.020770669E-1,4.608535767E-2
1.985085713E1,-1.753313839E-2,-1.039440632E-1,5.555915833E-2
1.986678731E1,-9.485706687E-4,-1.077847481E-1,2.449226379E-2
1.988268696E1,-3.450915217E-3,-1.060959101E-1,5.106830597E-2
1.989867818E1,6.369516253E-3,-1.124401689E-1,3.478240967E-2
1.991463887E1,6.430998445E-3,-1.142050028E-1,1.116371155E-2
1.993063008E1,1.872129738E-3,-1.097246408E-1,1.565933228E-3
1.994656026E1,-1.030006260E-2,-1.065957546E-1,1.808452606E-2
1.996255147E1,-3.486551344E-3,-8.855199814E-2,5.618667603E-2
1.997851216E1,1.334481686E-2,-9.262907505E-2,6.820011139E-2
1.999453389E1,-8.989199996E-4,-1.090189815E-1,4.231452942E-2
2.001049458E1,-1.752254367E-2,-1.069759727E-1,-2.616882324E-3
2.002648579E1,-5.493611097E-3,-1.028900743E-1,4.816055298E-3
2.004244649E1,1.676306129E-3,-9.612464905E-2,1.182651520E-2
2.005843770E1,-1.041032374E-2,-8.257126808E-2,5.218696594E-2
2.007439839E1,-3.197297454E-3,-8.440428972E-2,3.531646729E-2
2.009038960E1,-8.600577712E-4,-9.488821030E-2,2.597618103E-2
2.010635029E1,6.340667605E-3,-8.902209997E-2,1.915264130E-2
2.012237202E1,-1.025569439E-2,-9.835463762E-2,-2.617645264E-2
2.013827168E1,2.009198070E-3,-8.661478758E-2,9.572029114E-3
2.015429341E1,1.381037384E-2,-8.394753933E-2,4.985237122E-2
2.017025410E1,-1.290611923E-2,-6.004196405E-2,6.392860413E-2
2.018624531E1,-5.722001195E-3,-8.852344751E-2,5.915546417E-2
2.020223652E1,-9.078010917E-4,-9.812992811E-2,2.113723755E-2
2.021822774E1,1.115930825E-2,-9.247112274E-2,9.510993958E-3
2.023412739E1,-7.872596383E-3,-9.306555986E-2,2.436637878E-3
2.025011860E1,-5.465991795E-3,-8.920097351E-2,-1.611709595E-4
2.026604878E1,-1.973683387E-2,-7.419967651E-2,2.338123322E-2
2.028194844E1,-7.178857923E-4,-7.471996546E-2,5.418682098E-2
2.029797017E1,-1.271976531E-2,-7.580775023E-2,6.369876862E-2
2.031390034E1,-3.146223724E-3,-7.904952765E-2,2.084064484E-2
2.032989155E1,9.141214192E-3,-9.992617369E-2,6.801605225E-3
2.034582173E1,-4.912197590E-3,-9.407335520E-2,4.053020477E-2
2.036175191E1,-4.986360669E-3,-7.750612497E-2,1.657581329E-2
2.037771260E1,4.630655050E-3,-8.279991150E-2,3.315830231E-2
2.039373433E1,-4.852592945E-3,-5.913805962E-2,3.778266907E-2
2.040966450E1,-4.674300551E-3,-6.607156992E-2,5.934429169E-2
2.042568623E1,-1.168864965E-2,-7.401210070E-2,3.564548492E-2
2.044167744E1,-9.193494916E-3,-8.419001102E-2,2.871894836E-2
2.045766865E1,-9.029485285E-3,-7.996690273E-2,4.887580872E-3
2.047365986E1,-6.577789783E-3,-8.452588320E-2,1.672363281E-2
2.048965108E1,-8.913189173E-3,-8.914554119E-2,3.320026398E-2
2.050558125E1,5.699619651E-4,-7.591789961E-2,4.974555969E-2
2.052154194E1,-4.195854068E-3,-6.723159552E-2,3.053760529E-2
2.053753316E1,-4.021771252E-3,-6.579017639E-2,2.104663849E-2
2.055346333E1,-3.920868039E-3,-8.081221581E-2,2.593994141E-2
2.056945454E1,-6.381899118E-3,-6.112277508E-2,4.752063751E-2
2.058541524E1,-1.886166632E-3,-6.805592775E-2,1.626777649E-2
2.060143696E1,-1.392667741E-2,-6.923997402E-2,1.844596863E-2
2.061733662E1,-8.977487683E-3,-7.730984688E-2,2.782344818E-2
2.063335835E1,5.780830979E-4,-7.471889257E-2,3.248023987E-2
2.064931904E1,-6.747201085E-3,-6.789398193E-2,3.724956512E-2
2.066534077E1,-6.654694676E-3,-6.991380453E-2,3.966522217E-2
2.068133198E1,-1.137524843E-2,-7.310396433E-2,2.285671234E-2
2.069732319E1,1.042263210E-2,-5.186456442E-2,2.269268036E-2
2.071328389E1,-6.446577609E-3,-4.810428619E-2,2.727890015E-2
2.072927510E1,5.880489945E-3,-5.499744415E-2,3.419303894E-2
2.074523579E1,-6.147876382E-3,-6.237542629E-2,6.037807465E-2
2.076125752E1,-6.141297519E-3,-6.254816055E-2,1.727294922E-2
2.077721821E1,5.899615586E-3,-5.848240852E-2,3.159427643E-2
2.079323994E1,-6.086789072E-3,-5.354064703E-2,1.231098175E-2
2.080920064E1,-1.574380696E-2,-4.508864880E-2,1.915264130E-2
2.082522236E1,-1.567758620E-3,-7.014483213E-2,2.346992493E-2
2.084121358E1,-6.568573415E-3,-6.366705894E-2,6.133556366E-2
2.085720479E1,5.328543484E-3,-4.057908058E-2,4.186916351E-2
2.087316548E1,4.699826241E-4,-5.889564753E-2,4.883480072E-2
2.088915669E1,2.767741680E-4,-5.230736732E-2,1.754856110E-2
2.090508687E1,2.894848585E-4,-5.555033684E-2,2.229022980E-2
2.092104756E1,-6.816640496E-3,-5.674129725E-2,1.717758179E-2
2.093706929E1,-1.864790916E-3,-7.112109661E-2,3.607273102E-2
2.095302998E1,2.680639923E-2,-6.099033356E-2,4.595756531E-3
2.096902119E1,-1.408796012E-2,-4.703247547E-2,5.208492279E-2
2.098495137E1,-4.523962736E-3,-5.569672585E-2,2.303123474E-2
2.100088154E1,2.877190709E-3,-4.759639502E-2,3.001403809E-2
2.101684224E1,-4.215784371E-3,-4.330220819E-2,1.550102234E-2
2.103283345E1,-1.366668195E-2,-7.125294209E-2,2.248096466E-2
2.104882466E1,-6.498359144E-3,-5.358248949E-2,3.892803192E-2
2.106478535E1,-1.826465130E-3,-5.470097065E-2,4.582023621E-2
2.108080708E1,-2.001896501E-3,-4.439041018E-2,5.052947998E-2
2.109673726E1,5.146272480E-3,-1.791062951E-2,4.335403442E-2
2.111272847E1,3.899112344E-4,-3.235042095E-2,2.910232544E-2
2.112871968E1,-1.934878528E-3,-3.031042218E-2,3.159618378E-2
2.114468037E1,-6.663002074E-3,-2.998799086E-2,2.921676636E-2
2.116067158E1,5.167268217E-3,-3.086364269E-2,4.354095459E-2
2.117666279E1,-4.600919783E-3,-2.656269073E-2,2.436542511E-2
2.119265400E1,2.567440271E-3,-1.686269045E-2,4.831314087E-2
2.120861470E1,-1.192325354E-2,-8.989185095E-3,1.483058929E-2
2.122457539E1,1.221945137E-2,-2.849483490E-2,-6.737709045E-3
2.124053609E1,-1.194964349E-2,-3.054124117E-2,3.626060486E-2
2.125652730E1,2.183966339E-3,-1.484721899E-2,2.891254425E-2
2.127248799E1,-1.976753771E-2,-1.180791855E-2,6.702327728E-2
2.128847920E1,-2.472420037E-2,-1.715120673E-2,6.927776337E-2
2.130443989E1,-8.676573634E-4,-7.861286402E-3,5.489921570E-2
2.132040059E1,-1.521583647E-2,1.273059845E-2,3.581428528E-2
2.133639180E1,6.417118013E-3,2.927482128E-3,3.831195831E-2
2.135232197E1,-1.746051013E-2,-2.724796534E-3,5.035591125E-2
2.136831318E1,-1.047657430E-2,2.312612534E-2,3.118133545E-2
2.138424336E1,-3.341808915E-3,1.666632295E-2,3.349590302E-2
2.140020405E1,-8.418522775E-3,2.219966054E-2,3.581333160E-2
2.141622578E1,2.036941051E-2,1.763531566E-2,3.331470490E-2
2.143218648E1,6.123222411E-3,2.923405170E-2,5.472946167E-2
2.144817769E1,-8.259713650E-3,1.699849963E-2,7.375812531E-2
2.146413838E1,8.583314717E-3,3.177738190E-2,1.141357422E-2
2.148003804E1,8.659780025E-3,2.395385504E-2,3.532505035E-2
2.149602925E1,1.566544175E-3,2.204710245E-2,4.492378235E-2
2.151198994E1,-5.807399750E-3,2.033546567E-2,4.016971588E-2
2.152798115E1,-8.529044688E-3,3.812813759E-2,4.489803314E-2
2.154391133E1,1.037011296E-2,3.700569272E-2,2.079391479E-2
2.155987202E1,1.957009733E-2,3.425332904E-2,3.253173828E-2
2.157589375E1,4.909798503E-3,4.570895433E-2,6.820487976E-2
2.159182393E1,-1.408537477E-2,5.178439617E-2,5.367946625E-2
2.160781514E1,-9.425528347E-3,5.650135875E-2,4.410076141E-2
2.162377583E1,-4.810050130E-3,4.052191973E-2,4.424571991E-2
2.163973652E1,7.223866880E-3,5.400189757E-2,3.484725952E-2
2.165569722E1,2.335160971E-3,5.814206600E-2,6.197929382E-3
2.167159688E1,6.995156407E-3,4.912808537E-2,3.005695343E-2
2.168758809E1,-2.884998918E-3,4.189619422E-2,4.420471191E-2
2.170351826E1,6.592981517E-3,8.157670498E-2,5.841732025E-2
2.171941792E1,-5.717590451E-3,6.570994854E-2,4.616928101E-2
2.173540913E1,-3.565572202E-3,9.220069647E-2,5.554485321E-2
2.175136982E1,8.410818875E-3,8.341136575E-2,4.360866547E-2
2.176733052E1,-8.117556572E-3,8.352279663E-2,2.945613861E-2
2.178326069E1,1.494444907E-3,7.493942976E-2,2.471160889E-2
2.179919087E1,-5.621910095E-3,6.958809495E-2,2.468585968E-2
2.181521260E1,-1.762368530E-2,6.131488085E-2,2.213859558E-2
2.183114277E1,-1.018382609E-3,8.882850409E-2,3.863525391E-2
2.184713399E1,1.309593767E-2,9.942945838E-2,3.597927094E-2
2.186309468E1,-1.330614835E-2,7.834389806E-2,2.621841431E-2
2.187896382E1,-1.430056989E-3,7.876968384E-2,5.725955963E-2
2.189498555E1,8.097335696E-3,9.118020535E-2,3.333759308E-2
2.191094624E1,-1.347580552E-2,8.301097155E-2,2.621459961E-2
2.192693745E1,-1.146285981E-2,8.731821179E-2,3.098678589E-2
2.194286763E1,-6.882324815E-3,7.454296947E-2,3.564262390E-2
2.195876729E1,4.972815514E-3,8.824908733E-2,3.302192688E-2
2.197475850E1,1.424401999E-4,8.454862237E-2,3.516578674E-2
2.199065816E1,7.226102054E-3,7.413434982E-2,5.409240723E-2
2.200664937E1,-4.861228168E-3,9.855878353E-2,6.589221954E-2
2.202261006E1,2.247907221E-3,8.719608188E-2,5.145645142E-2
2.203863179E1,-1.934283227E-2,8.946910501E-2,3.708648682E-2
2.205456196E1,1.176196337E-2,9.697458148E-2,4.667663574E-2
2.207055318E1,-5.099736154E-3,8.814209700E-2,1.548767090E-2
2.208651387E1,4.401192069E-3,1.151099503E-1,5.602645874E-2
2.210247456E1,4.078149796E-3,1.072247028E-1,5.102920532E-2
2.211849629E1,-3.161944449E-3,1.117628813E-1,4.604816437E-2
2.213448750E1,-1.527523994E-2,1.099880338E-1,4.358863831E-2
2.215047871E1,1.111457497E-2,1.026481688E-1,4.367256165E-2
2.216646992E1,-3.164403141E-3,9.712111950E-2,3.185558319E-2
2.218243062E1,-1.042517275E-2,9.535643458E-2,2.957916260E-2
2.219842183E1,1.490861177E-3,1.041674316E-1,1.518535614E-2
2.221438252E1,1.336289942E-2,1.056388915E-1,3.181743622E-2
2.223037373E1,-1.310220361E-2,9.955751896E-2,3.646659851E-2
2.224636494E1,-3.611825407E-3,8.705857396E-2,6.269359589E-2
2.226229512E1,3.499314189E-3,1.099988222E-1,6.026268005E-2
2.227831685E1,-6.174206734E-3,1.177746654E-1,3.634357452E-2
2.229424702E1,1.489311457E-2,1.138240993E-1,4.116916656E-2
2.231023823E1,5.180701613E-3,1.032191515E-1,3.155517578E-2
2.232619893E1,-9.283848107E-3,1.195726097E-1,4.102802277E-2
2.234215962E1,2.819091082E-3,1.062478125E-1,2.173328400E-2
2.235818135E1,4.155486822E-4,1.321182102E-1,5.993556976E-2
2.237408101E1,-4.417873919E-3,1.147987843E-1,4.785728455E-2
2.239010274E1,5.338229239E-3,1.376343668E-1,5.730533600E-2
2.240606343E1,-1.122746617E-2,1.201147288E-1,3.803634644E-2
2.242208516E1,-8.678130805E-3,1.155502349E-1,4.035091400E-2
2.243807637E1,-1.370355487E-3,1.035109460E-1,2.341938019E-2
2.245406758E1,-2.061877400E-2,1.027987450E-1,2.801799774E-2
2.247005879E1,5.561105907E-3,8.995610476E-2,3.500843048E-2
2.248598897E1,-1.135249436E-2,1.138722003E-1,3.484916687E-2
2.250198018E1,-4.055194557E-3,1.018677056E-1,3.947639465E-2
2.251797139E1,-1.402720809E-3,1.116384864E-1,4.418945312E-2
2.253396260E1,5.794323981E-3,9.760947526E-2,4.180622101E-2
2.254995381E1,-1.322224736E-3,9.151352942E-2,5.928039551E-3
2.256588399E1,-6.160371006E-3,1.109595597E-1,4.664039612E-2
2.258187520E1,-3.794819117E-3,9.682707489E-2,4.896259308E-2
2.259786641E1,1.108393073E-3,1.166526228E-1,5.122375488E-2
2.261388814E1,6.155952811E-3,1.360652000E-1,3.431510925E-2
2.262981831E1,1.329337806E-2,1.360411793E-1,5.571269989E-2
2.264580952E1,-5.892522633E-3,1.124194860E-1,1.487350464E-2
2.266173970E1,-1.186281443E-3,1.105340123E-1,2.432060242E-2
2.267766987E1,1.530948281E-2,9.627316892E-2,4.333591461E-2
2.269369160E1,-1.345861703E-2,9.909501672E-2,2.644824982E-2
2.270962178E1,-8.652329445E-3,1.095824987E-1,2.872848511E-2
2.272561299E1,1.066912711E-2,9.844577312E-2,4.297733307E-2
2.274157368E1,-1.094203442E-2,1.129595488E-1,2.608871460E-2
2.275744282E1,1.778376848E-2,9.620167315E-2,4.031944275E-2
2.277343403E1,5.705066025E-3,1.083673239E-1,3.540706635E-2
2.278936421E1,5.627267063E-3,9.843681753E-2,4.730415344E-2
2.280535542E1,1.989893615E-2,1.239712089E-1,3.052425385E-2
2.282128560E1,-6.421193480E-3,1.096782684E-1,3.298473358E-2
2.283721577E1,-4.198424518E-3,1.188459098E-1,3.782939911E-2
2.285320698E1,-1.621890813E-2,1.187451482E-1,3.064441681E-2
2.286913716E1,3.937184811E-4,1.287117451E-1,4.016780853E-2
2.288512837E1,7.450699806E-3,1.170483530E-1,4.729557037E-2
2.290105855E1,9.855538607E-3,1.192981750E-1,3.053283691E-2
2.291698872E1,4.964202642E-3,1.043733656E-1,2.812480927E-2
2.293294942E1,2.390988171E-3,9.702639282E-2,4.960632324E-2
2.294894063E1,4.547610879E-3,1.024297178E-1,2.555847168E-2
2.296490132E1,2.118464559E-2,9.502768517E-2,4.937171936E-2
2.298083150E1,1.137270778E-2,1.043244451E-1,4.212379456E-2
2.299685322E1,-5.739532411E-3,1.048522294E-1,6.362915039E-2
2.301275288E1,-3.477051854E-3,9.486539662E-2,3.243541718E-2
2.302874409E1,1.191370189E-3,1.071579009E-1,3.238582611E-2
2.304470479E1,-1.485362649E-3,9.524896741E-2,2.754402161E-2
2.306066548E1,3.035753965E-3,9.901718795E-2,4.661750793E-2
2.307668721E1,7.476195693E-3,1.063508987E-1,3.454113007E-2
2.309267842E1,-7.216818631E-3,1.157037020E-1,3.203392029E-2
2.310866963E1,-2.632163465E-3,1.015754044E-1,3.672122955E-2
2.312466084E1,-2.828121185E-3,1.134045795E-1,2.703571320E-2
2.314062153E1,-1.024029404E-2,1.127496287E-1,2.931499481E-2
2.315658223E1,1.580692828E-3,1.068681702E-1,5.557823181E-2
2.317260396E1,-5.780607462E-4,1.008966416E-1,1.724243164E-2
2.318850361E1,-7.561139762E-3,1.077775583E-1,2.925682068E-2
2.320446431E1,-7.604487240E-3,9.642619640E-2,2.927017212E-2
2.322042500E1,2.096067369E-2,1.186536700E-1,4.360008240E-2
2.323644673E1,-1.290889084E-2,9.732754529E-2,5.308628082E-2
2.325237691E1,-1.101098955E-2,1.084253192E-1,3.142833710E-2
2.326836812E1,-9.100422263E-3,1.126468182E-1,2.414608002E-2
2.328435933E1,-4.664391279E-3,1.258776933E-1,5.281257629E-2
2.330032002E1,7.262617350E-3,1.140324846E-1,2.164459229E-2
2.331631123E1,2.232849598E-3,1.236513704E-1,5.028915405E-2
2.333221089E1,4.253923893E-3,1.093149856E-1,3.109741211E-2
2.334823262E1,6.309427321E-3,1.190304384E-1,2.862358093E-2
2.336419331E1,-1.033798605E-2,8.890277892E-2,2.376747131E-2
2.338018452E1,6.299763918E-3,9.068278968E-2,2.371692657E-2
2.339617573E1,-1.044148952E-2,1.088665500E-1,4.281330109E-2
2.341216694E1,-2.505239099E-2,1.121307909E-1,3.317451477E-2
2.342812764E1,1.078306884E-2,1.108637303E-1,3.790569305E-2
2.344411885E1,3.302387893E-3,8.531630784E-2,3.545093536E-2
2.346004902E1,5.003824830E-3,9.007793665E-2,2.102088928E-2
2.347594868E1,-1.000271738E-2,1.010019034E-1,1.376152039E-2
2.349193989E1,3.761447966E-3,1.044710279E-1,3.044128418E-2
2.350790059E1,9.672194719E-4,1.001817584E-1,3.038787842E-2
2.352386128E1,-1.334086806E-2,8.562169969E-2,3.514099121E-2
2.353979146E1,1.533716917E-3,8.779670298E-2,2.316188812E-2
2.355575215E1,2.066582441E-2,7.382812351E-2,3.992557526E-2
2.357174336E1,5.905471742E-3,8.386883140E-2,2.075195312E-2
2.358770405E1,-1.137664914E-2,9.853029996E-2,2.548885345E-2
2.360369527E1,-4.927016795E-3,9.807105362E-2,4.937648773E-2
2.361962544E1,1.194044948E-3,1.080339774E-1,4.933929443E-2
2.363555562E1,5.510002375E-4,1.032335386E-1,4.692554474E-2
2.365154683E1,2.558082342E-4,1.065930501E-1,4.930686951E-2
2.366750752E1,7.513359189E-3,1.036543921E-1,3.254127502E-2
2.368349873E1,-9.203501046E-3,8.938865364E-2,2.057075500E-2
2.369945942E1,-1.168210059E-2,1.054401323E-1,3.253459930E-2
2.371542012E1,-3.054738045E-6,8.722524345E-2,8.555412292E-3
2.373144185E1,4.472836852E-3,1.019440219E-1,1.330280304E-2
2.374737202E1,1.590262353E-2,9.688613564E-2,4.917144775E-2
2.376336323E1,1.085127890E-2,1.038687006E-1,4.433917999E-2
2.377932393E1,1.255437732E-3,1.090820357E-1,3.472423553E-2
2.379534566E1,2.759887278E-2,9.864358604E-2,3.709125519E-2
2.381127583E1,-8.309215307E-3,1.009300947E-1,4.185962677E-2
2.382717549E1,3.316909075E-3,9.131291509E-2,4.184436798E-2
2.384313618E1,1.488134265E-2,9.837616980E-2,4.183006287E-2
2.385909688E1,1.227205992E-2,9.077313542E-2,3.941631317E-2
2.387505757E1,4.901871085E-3,8.791337907E-2,2.982234955E-2
2.389101826E1,-2.250760794E-3,8.275122195E-2,3.459167480E-2
2.390700947E1,-1.421377808E-2,1.055928543E-1,2.738571167E-2
2.392297017E1,1.196828485E-2,9.929522872E-2,2.497005463E-2
2.393890034E1,-4.621058702E-3,9.122081101E-2,2.734279633E-2
2.395492207E1,1.011060178E-2,9.276488423E-2,3.689765930E-2
2.397082173E1,3.431200981E-3,9.590163827E-2,3.926372528E-2
2.398681294E1,-5.392313004E-3,8.236701787E-2,4.641819000E-2
2.400277363E1,7.671773434E-3,1.017251685E-1,4.159641266E-2
2.401870381E1,-5.691379309E-3,7.628866285E-2,7.987499237E-2
2.403472554E1,2.502992749E-3,9.413921833E-2,8.401870728E-4
2.405062520E1,1.025747508E-2,7.946597785E-2,4.152679443E-2
2.406664692E1,-1.332688332E-2,8.976805210E-2,2.954673767E-2
2.408257710E1,-3.830194473E-3,7.582729310E-2,1.996517181E-2
2.409853779E1,-1.061156392E-3,9.545233101E-2,4.150390625E-2
2.411455952E1,1.477725804E-3,8.476771414E-2,3.671073914E-2
2.413042866E1,4.018582404E-3,9.109980613E-2,5.346584320E-2
2.414641987E1,-3.271922469E-4,8.749140799E-2,3.430461884E-2
2.416238057E1,1.163937151E-2,8.904740959E-2,4.148578644E-2
2.417834126E1,1.900940388E-2,7.858386636E-2,3.669357300E-2
2.419436299E1,-1.468868554E-2,8.244356513E-2,4.387569427E-2
2.421035420E1,-1.221895218E-4,8.157289028E-2,4.387283325E-2
2.422631489E1,-1.651474088E-2,9.731438756E-2,-1.624107361E-3
2.424230610E1,-4.208572209E-3,9.158679843E-2,2.231216431E-2
2.425826680E1,-6.209120154E-3,8.366660029E-2,1.751804352E-2
2.427422749E1,1.313842088E-2,8.534671366E-2,3.427410126E-2
2.429015767E1,-6.156019866E-3,8.481288701E-2,1.512050629E-2
2.430617940E1,1.750157028E-2,9.137486666E-2,3.427791595E-2
2.432214009E1,1.020199805E-2,7.514237612E-2,3.188228607E-2
2.433816182E1,7.563695312E-3,9.478799999E-2,2.949237823E-2
2.435415303E1,-4.396334291E-3,7.736259699E-2,1.512527466E-2
2.437014424E1,9.690620005E-3,9.590613842E-2,1.273536682E-2
2.438610493E1,-4.257768393E-3,6.640262157E-2,2.469921112E-2
2.440206563E1,5.422584713E-3,8.502829075E-2,3.427505493E-2
2.441802632E1,-1.149060577E-2,8.699003607E-2,2.709388733E-2
2.443392598E1,2.864696085E-3,8.621855080E-2,3.427600861E-2
2.444994771E1,-1.876731217E-2,7.376363873E-2,3.667068481E-2
2.446590840E1,-4.221864045E-3,6.373430789E-2,2.230358124E-2
2.448186909E1,-4.027970135E-3,6.581335515E-2,4.624271393E-2
2.449782979E1,1.003794372E-3,7.041303068E-2,4.863357544E-2
2.451385152E1,-1.278892159E-3,8.927481622E-2,1.990127563E-2
2.452975117E1,-1.056417823E-3,8.674106002E-2,3.426361084E-2
2.454577290E1,3.885805607E-3,5.332451686E-2,2.947330475E-2
2.456173360E1,6.461903453E-3,7.029301673E-2,2.468299866E-2
2.457775532E1,-8.124396205E-3,7.772915810E-2,2.708053589E-2
2.459374653E1,3.794386983E-3,8.497262001E-2,2.708148956E-2
2.460973774E1,-1.536827534E-2,7.781343162E-2,1.271629333E-2
2.462572896E1,1.335140318E-2,8.005875349E-2,3.665828705E-2
2.464168965E1,-1.069408655E-2,8.243010193E-2,2.468776703E-2
2.465771138E1,-5.888000131E-3,7.497944683E-2,4.623603821E-2
2.467370259E1,8.400261402E-3,9.161707759E-2,5.341911316E-2
2.468969380E1,-8.536830544E-3,7.226759940E-2,3.187370300E-2
2.470568501E1,1.764564961E-2,8.159895241E-2,1.272201538E-2
2.472161519E1,-8.796177804E-3,8.606363833E-2,3.187656403E-2
2.473760640E1,1.753166318E-2,7.877112180E-2,2.469348907E-2
2.475359761E1,-9.078592062E-3,8.079413325E-2,3.906154633E-2
2.476958882E1,2.747729421E-3,6.873759627E-2,2.948665619E-2
2.478554951E1,-6.864704192E-3,7.572618872E-2,6.779479980E-2
2.480154072E1,-6.884194911E-3,6.469075382E-2,4.624748230E-2
2.481750142E1,3.658458591E-4,7.084002346E-2,4.145812988E-2
2.483346211E1,-2.221688628E-3,8.040767908E-2,5.103778839E-2
2.484945332E1,4.960283637E-3,7.096333057E-2,7.942199707E-3
2.486538350E1,-7.116243243E-3,7.354527712E-2,3.188514709E-2
2.488137471E1,2.373859286E-3,8.325806260E-2,2.230930328E-2
2.489736592E1,-3.662705421E-5,6.919194013E-2,3.188705444E-2
2.491326558E1,1.182880253E-2,8.163132519E-2,1.512813568E-2
2.492928731E1,1.876147836E-2,7.920648158E-2,4.386234283E-2
2.494524800E1,-5.408711731E-3,7.666281611E-2,1.752853394E-2
2.496123921E1,-3.375492990E-3,7.654900849E-2,1.035118103E-2
2.497719990E1,-1.098036766E-3,8.852849156E-2,1.992893219E-2
2.499316060E1,-3.621473908E-3,7.383266091E-2,4.147815704E-2
2.500912129E1,1.201681793E-3,7.365215570E-2,3.429412842E-2
2.502511250E1,-1.317611337E-2,7.118917257E-2,2.471828461E-2
2.504110371E1,1.324482262E-3,7.837121189E-2,2.471637726E-2
2.505703389E1,-1.279660314E-2,8.072812110E-2,2.710819244E-2
2.507305562E1,6.312683225E-3,6.859558076E-2,4.147243500E-2
2.508898579E1,-3.450833261E-3,7.121313363E-2,3.189945221E-2
2.510494649E1,-5.928464234E-3,6.200617552E-2,4.387092590E-2
2.512090718E1,-1.307033002E-3,7.681465894E-2,1.993083954E-2
2.513692891E1,8.180387318E-3,6.293988228E-2,3.669357300E-2
2.515292012E1,-1.523822546E-3,5.410096049E-2,1.993656158E-2
2.516885029E1,7.954478264E-3,6.934569776E-2,3.430366516E-2
2.518487202E1,5.295842886E-3,6.303699315E-2,2.473258972E-2
2.520083272E1,9.684614837E-3,5.916298553E-2,1.276874542E-2
2.521682393E1,-9.694322944E-3,6.249338016E-2,2.713871002E-2
2.523284566E1,-9.079277515E-5,5.164070427E-2,4.629421234E-2
2.524871480E1,-4.874162376E-3,6.004121900E-2,2.953624725E-2
2.526470601E1,-7.221750915E-3,3.250065446E-2,3.911399841E-2
2.528066670E1,-4.983082414E-3,5.287818611E-2,3.432941437E-2
2.529662739E1,-9.940490127E-3,5.170546100E-2,2.954578400E-2
2.531264912E1,-3.786385059E-4,4.825273156E-2,2.475929260E-2
2.532854878E1,4.313841462E-3,4.010217637E-2,3.194618225E-2
2.534457051E1,1.848265529E-2,5.128027499E-2,4.631614685E-2
2.536053120E1,-6.757825613E-4,4.561671615E-2,3.674125671E-2
2.537646138E1,4.111632705E-3,5.427059159E-2,3.195476532E-2
2.539239155E1,-3.155648708E-3,5.347166210E-2,3.914070129E-2
2.540841328E1,1.832655072E-2,3.837637976E-2,3.196144104E-2
2.542437398E1,1.667186618E-3,2.818683349E-2,2.477836609E-2
2.544036519E1,1.133038104E-2,2.526231110E-2,2.238464355E-2
2.545632588E1,-7.828034461E-3,2.949251793E-2,4.154014587E-2
2.547228657E1,3.868401051E-3,4.107428342E-2,1.760292053E-2
2.548827778E1,1.093851030E-2,2.858692780E-2,2.957630157E-2
2.550423848E1,-6.082296371E-3,3.311924264E-2,3.197479248E-2
2.552019917E1,-6.331324577E-3,5.449894816E-2,3.437232971E-2
2.553612935E1,-8.801616728E-3,5.673732609E-2,2.240371704E-2
2.555212056E1,3.232941031E-3,5.871190876E-2,5.352783203E-2
2.556811177E1,-8.819855750E-3,3.693569452E-2,4.155921936E-2
2.558410298E1,-4.170849919E-3,3.222471848E-2,2.001190186E-2
2.560009419E1,9.854286909E-3,3.952601925E-2,3.198814392E-2
2.561605488E1,-2.501040697E-3,5.859106034E-2,2.241611481E-2
2.563201558E1,-2.604797482E-3,2.723684907E-2,2.720737457E-2
2.564800679E1,-7.240310311E-3,2.709360793E-2,3.199386597E-2
2.566396748E1,4.450187087E-3,3.173002973E-2,2.721023560E-2
2.567995869E1,-2.901360393E-3,4.864984751E-2,2.960586548E-2
2.569594990E1,-1.280460507E-2,2.277386002E-2,4.397296906E-2
2.571197163E1,-8.012652397E-4,3.244596720E-2,3.918361664E-2
2.572790181E1,-1.005410403E-2,3.692951053E-2,3.199863434E-2
2.574389302E1,9.016811848E-3,3.209888935E-2,4.397010803E-2
2.575985371E1,4.185825586E-3,2.277778275E-2,3.199958801E-2
2.577581441E1,8.714854717E-3,3.082241677E-2,1.524066925E-2
2.579183613E1,1.410752535E-3,3.351326287E-2,3.678989410E-2
2.580782735E1,-8.067101240E-3,3.094192408E-2,4.397106171E-2
2.582381856E1,-3.422334790E-3,4.124562815E-2,1.763534546E-2
2.583974873E1,5.412578583E-3,5.053680018E-2,-8.697509766E-3
2.585573994E1,-1.038588583E-2,2.201536298E-2,5.116462708E-2
2.587173115E1,3.201141953E-3,2.131586894E-2,2.003765106E-2
2.588772236E1,7.528945804E-3,1.650431380E-2,2.482604980E-2
2.590368306E1,-6.680652499E-3,1.042944845E-2,2.003479004E-2
2.591967427E1,-6.282866001E-3,3.835104033E-2,2.481842041E-2
2.593563496E1,-3.631457686E-3,1.643599570E-2,5.833435059E-2
2.595159566E1,1.169040799E-3,4.989156500E-2,3.199672699E-2
2.596758687E1,-1.082979143E-2,1.778159477E-2,1.523494720E-2
2.598354756E1,-8.329927921E-3,1.209581178E-2,1.523303986E-2
2.599953877E1,-5.856737494E-3,3.219518065E-2,3.917407990E-2
2.601549946E1,1.342098415E-2,3.272351995E-2,2.001857758E-2
2.603146016E1,6.107106805E-3,3.749136627E-2,4.396152496E-2
2.604748189E1,-1.074561477E-2,2.716717683E-2,2.002143860E-2
2.606341206E1,-1.545399427E-3,4.074837640E-2,5.594253540E-2
2.607940327E1,3.356367350E-3,2.521549165E-2,3.200531006E-2
2.609533345E1,-1.034259796E-3,2.917370759E-2,2.722263336E-2
2.611120259E1,-1.963119209E-2,2.251376770E-2,2.962017059E-2
2.612722432E1,-2.881490439E-2,4.033444822E-2,2.723121643E-2
2.614315449E1,9.785026312E-3,2.737824060E-2,1.765441895E-2
2.615914570E1,2.641454339E-3,4.064487666E-2,2.962875366E-2
2.617510640E1,-1.782909036E-3,2.533670329E-2,4.879093170E-2
2.619109761E1,-2.049571276E-2,4.333204776E-2,2.726078033E-2
2.620708882E1,1.680150628E-3,1.254277676E-2,3.446865082E-2
2.622304951E1,-1.181168109E-2,1.073113084E-2,5.125904083E-2
2.623904072E1,-3.423675895E-3,1.783253998E-2,2.016162872E-2
2.625500142E1,-1.392316073E-2,1.870170236E-3,-1.094436646E-2
2.627102315E1,5.498141050E-3,1.171484590E-2,4.174423218E-2
2.628701436E1,8.236885071E-3,-6.184726954E-3,3.456592560E-2
2.630300557E1,-8.334904909E-3,2.466223389E-2,5.371475220E-2
2.631893574E1,-1.287768036E-2,5.784407258E-4,2.976894379E-2
2.633492695E1,1.393668354E-2,1.666340232E-2,3.215312958E-2
2.635091817E1,1.406980306E-2,2.196997404E-3,6.088161469E-2
2.636690938E1,2.284646034E-3,9.042844176E-4,2.257919312E-2
2.638287007E1,4.821717739E-3,-1.111380011E-2,1.780700684E-2
2.639886128E1,2.856463194E-3,9.083949029E-3,2.740573883E-2
2.641482197E1,-1.791164279E-3,-1.973055303E-3,8.276939392E-3
2.643072163E1,-3.711558878E-3,-1.239141077E-2,4.182434082E-2
2.644671284E1,-8.106619120E-3,-1.552365720E-3,2.988052368E-2
2.646264302E1,-7.821045816E-3,1.554768533E-2,4.187393188E-2
2.647863423E1,2.235218883E-3,-5.820095539E-3,1.316261292E-2
2.649456441E1,-9.445056319E-3,-1.182354987E-3,3.951549530E-2
2.651052510E1,-1.878394186E-2,-6.079904735E-3,4.671859741E-2
2.652654683E1,-6.717972457E-3,-1.076908410E-2,5.871391296E-2
2.654247700E1,7.787875831E-3,-7.379554212E-3,5.395984650E-2
2.655846821E1,-1.347314566E-2,9.043812752E-4,4.681205750E-2
2.657442891E1,5.777888000E-3,-2.337168902E-2,3.486156464E-2
2.659045064E1,1.182876527E-3,-2.916716784E-2,3.248214722E-2
2.660635029E1,-8.158862591E-3,-1.294854283E-2,3.489398956E-2
2.662237202E1,8.888438344E-3,-2.180317789E-2,2.774524689E-2
2.663833272E1,-1.486087590E-2,1.949146390E-3,3.258800507E-2
2.665435444E1,-3.519877791E-4,-2.169518173E-2,3.264999390E-2
2.667034566E1,4.529297352E-3,-1.701353490E-2,2.313423157E-2
2.668633687E1,9.316392243E-3,-2.960763872E-2,1.600742340E-2
2.670232808E1,1.165916026E-2,-1.926569641E-2,2.084064484E-2
2.671831929E1,-2.396106720E-5,-1.471263170E-2,3.044509888E-2
2.673427998E1,1.223369688E-2,-2.012409270E-2,3.525543213E-2
2.675021016E1,-2.110064030E-2,-1.797012985E-2,3.767967224E-2
2.676623189E1,6.369650364E-4,-2.635221183E-2,4.730796814E-2
2.678213154E1,-1.513302326E-3,-1.595875621E-2,3.063106537E-2
2.679812276E1,-1.334317774E-2,-2.908049524E-2,1.636123657E-2
2.681408345E1,6.001338363E-3,-4.062142968E-2,5.714702606E-2
2.682998311E1,1.500822604E-3,-3.908106685E-2,3.087425232E-2
2.684600484E1,-9.375885129E-4,-4.101049900E-2,3.331947327E-2
2.686193501E1,3.910265863E-3,-4.118813574E-2,3.335762024E-2
2.687792622E1,-3.222815692E-3,-4.394643009E-2,3.813934326E-2
2.689388692E1,8.842967451E-3,-1.804387569E-2,4.291820526E-2
2.690990864E1,-4.595518112E-4,-2.886478603E-2,4.772472382E-2
2.692577778E1,-2.680115402E-3,-3.786356747E-2,2.143955231E-2
2.694179951E1,1.169949025E-2,-4.824648798E-2,3.108882904E-2
2.695772969E1,-5.011662841E-3,-2.890683711E-2,3.353023529E-2
2.697372090E1,-2.658694983E-3,-3.338783979E-2,2.635383606E-2
2.698971211E1,4.667282104E-3,-3.300379217E-2,6.462192535E-2
2.700570332E1,-9.692065418E-3,-4.864548147E-2,5.262756348E-2
2.702166402E1,-7.234975696E-3,-4.997552931E-2,4.067516327E-2
2.703765523E1,-1.439311355E-2,-5.465608835E-2,5.029773712E-2
2.705361592E1,-6.897523999E-3,-3.687223792E-2,4.317760468E-2
2.706954610E1,7.900170982E-3,-5.057717860E-2,3.844356537E-2
2.708553731E1,-3.793090582E-3,-6.053516269E-2,2.890300751E-2
2.710143696E1,3.548830748E-3,-3.358030319E-2,4.327869415E-2
2.711742818E1,8.531346917E-3,-3.986608982E-2,5.047607422E-2
2.713335835E1,-1.134485006E-3,-4.101000726E-2,4.092502594E-2
2.714938008E1,-1.076296717E-2,-4.977114499E-2,1.944351196E-2
2.716531026E1,3.648877144E-3,-4.469896853E-2,3.146743774E-2
2.718130147E1,-1.024897397E-2,-5.474160612E-2,2.920913696E-2
2.719726216E1,8.950494230E-3,-5.168193579E-2,1.730346680E-2
2.721322285E1,-1.965799928E-2,-5.796606839E-2,4.844665527E-2
2.722924458E1,1.449935138E-3,-6.536895037E-2,5.797195435E-2
2.724517476E1,-2.055852860E-2,-4.784940183E-2,3.639316559E-2
2.726116597E1,-1.749575138E-3,-4.859666526E-2,4.122066498E-2
2.727715718E1,-4.253603518E-3,-6.648197770E-2,3.417205811E-2
2.729311787E1,4.967376590E-4,-8.185097575E-2,3.191566467E-2
2.730910908E1,-1.869484782E-2,-8.560320735E-2,2.481269836E-2
2.732510029E1,-9.160414338E-3,-6.969267130E-2,1.521682739E-2
2.734106099E1,-2.404175699E-3,-7.034148276E-2,8.219051361E-2
2.735705220E1,-1.705794036E-2,-7.198174298E-2,2.469539642E-2
2.737301289E1,-1.241172850E-2,-7.562166452E-2,5.824184418E-2
2.738897359E1,-7.832057774E-3,-7.879345119E-2,4.397106171E-2
2.740496480E1,-1.028135419E-2,-8.147980273E-2,5.768775940E-3
2.742089497E1,1.866251230E-3,-8.616055548E-2,-6.146430969E-3
2.743688618E1,-1.489144564E-2,-9.437462687E-2,2.974319458E-2
2.745284688E1,-1.029603928E-2,-9.650559723E-2,3.687763214E-2
2.746886860E1,-1.279293001E-2,-1.016837806E-1,4.165744781E-2
2.748479878E1,8.396558464E-3,-1.041520387E-1,5.608177185E-2
2.750069844E1,-6.086036563E-3,-1.107514054E-1,4.657745361E-2
2.751668965E1,-2.030947059E-2,-1.103840321E-1,1.557540894E-2
2.753261982E1,-1.108109951E-3,-1.108707637E-1,1.322746277E-2
2.754848897E1,-5.857735872E-3,-1.071836948E-1,3.959465027E-2
2.756448018E1,-8.392371237E-3,-9.714803100E-2,1.560688019E-2
2.758041035E1,-8.391201496E-3,-1.119238585E-1,3.714466095E-2
2.759640156E1,-3.802672029E-3,-9.966041148E-2,4.194259644E-2
2.761236226E1,3.490321338E-3,-8.132071793E-2,4.922199249E-2
2.762838399E1,-2.061852068E-2,-1.104650646E-1,2.778625488E-2
2.764425313E1,1.286621392E-2,-1.101706624E-1,6.307601929E-3
2.766027486E1,-6.540440023E-3,-1.000953019E-1,1.350593567E-2
2.767623555E1,-9.024962783E-3,-1.173638999E-1,2.552700043E-2
2.769225728E1,4.614666104E-4,-1.140891612E-1,5.434322357E-2
2.770824849E1,-1.873511821E-2,-9.999600053E-2,4.249191284E-2
2.772423970E1,5.235724151E-3,-1.050632894E-1,5.458450317E-2
2.774013936E1,-9.000383317E-3,-1.128726006E-1,1.878261566E-2
2.775613057E1,-6.461068988E-3,-1.158237457E-1,2.840995789E-2
2.777206074E1,-8.824080229E-3,-1.198492944E-1,2.603626251E-2
2.778799092E1,-1.531809568E-3,-1.165171564E-1,4.521465302E-2
2.780398213E1,-6.174638867E-3,-1.151387393E-1,2.130889893E-2
2.781991231E1,-8.283823729E-3,-1.211725175E-1,1.901149750E-2
2.783590352E1,-8.749216795E-4,-1.029173136E-1,3.594970703E-2
2.785183369E1,-2.786204219E-3,-9.598198533E-2,5.290699005E-2
2.786785542E1,-1.704246551E-2,-1.251732707E-1,1.712322235E-2
2.788375508E1,4.875689745E-3,-1.107417047E-1,4.360198975E-2
2.789977681E1,-1.663523912E-2,-1.191284657E-1,4.850101471E-2
2.791573750E1,-1.881581545E-2,-1.109881103E-1,3.423786163E-2
2.793175923E1,4.047825933E-4,-1.067306697E-1,4.634380341E-2
2.794775044E1,-6.716087461E-3,-1.072309613E-1,2.493190765E-2
2.796374165E1,-1.787103713E-3,-1.199949682E-1,5.139732361E-2
2.797973286E1,5.275927484E-3,-1.038134694E-1,5.393123627E-2
2.799572407E1,2.863325179E-3,-1.042200029E-1,3.252983093E-2
2.801168477E1,-1.135300845E-2,-1.107211411E-1,4.947185516E-2
2.802764546E1,7.869750261E-3,-1.127773821E-1,2.570533752E-2
2.804363667E1,-1.641079783E-3,-1.041519046E-1,4.020404816E-2
2.805959736E1,-1.364538819E-2,-8.967378736E-2,2.353382111E-2
2.807555806E1,-1.111222804E-2,-1.205765307E-1,2.122974396E-2
2.809151875E1,-3.950141370E-3,-1.102195680E-1,2.613258362E-2
2.810744893E1,9.232535958E-4,-1.104648113E-1,9.449005127E-3
2.812347066E1,-2.785552293E-2,-8.892250061E-2,4.296875000E-2
2.813943135E1,2.018496394E-2,-9.468948841E-2,4.771995544E-2
2.815542256E1,2.253962308E-2,-1.113756299E-1,2.856922150E-2
2.817135274E1,-6.431266665E-3,-9.291777015E-2,4.539299011E-2
2.818725239E1,-1.612462103E-2,-9.934505820E-2,4.311466217E-2
2.820324360E1,-9.102642536E-3,-1.146692932E-1,3.359222412E-2
2.821914326E1,-4.456967115E-3,-1.107413173E-1,2.646732330E-2
2.823513447E1,-2.144902945E-3,-1.185457408E-1,3.132247925E-2
2.825109517E1,-1.386921108E-2,-1.003167331E-1,1.940345764E-2
2.826711690E1,6.224215031E-4,-1.108829081E-1,3.133487701E-2
2.828304707E1,-2.596710622E-2,-1.087571084E-1,4.560565948E-2
2.829894673E1,3.837943077E-4,-9.440580010E-2,5.757617950E-2
2.831493794E1,-4.410281777E-3,-9.768766165E-2,3.856754303E-2
2.833089863E1,-1.646227390E-2,-1.141252518E-1,1.721096039E-2
2.834679829E1,-4.766613245E-3,-1.190563738E-1,2.448272705E-2
2.836278950E1,-9.590193629E-3,-1.069462597E-1,2.200222015E-2
2.837868916E1,-1.210693270E-2,-9.074637294E-2,2.898788452E-2
2.839468037E1,-1.907419413E-2,-1.025142670E-1,6.233406067E-2
2.841061055E1,-1.397879422E-2,-1.041910350E-1,4.550933838E-2
2.842660176E1,3.089532256E-3,-9.955084324E-2,3.361701965E-2
2.844253194E1,-1.316060126E-2,-1.043926179E-1,5.054569244E-2
2.845852315E1,3.797493875E-3,-1.367118359E-1,2.673625946E-2
2.847451436E1,-1.275731623E-2,-1.105415523E-1,1.715087891E-2
2.849041402E1,-3.867894411E-4,-1.057763398E-1,2.654266357E-2
2.850637471E1,-1.677501202E-2,-8.835977316E-2,4.066371918E-2
2.852239644E1,1.464705169E-2,-9.693902731E-2,5.967712402E-2
2.853829610E1,-2.019770443E-3,-1.029027700E-1,6.450748444E-2
2.855425679E1,-6.607688963E-3,-1.134921908E-1,2.881813049E-2
2.857024800E1,-6.600372493E-3,-1.052411199E-1,1.945877075E-2
2.858626973E1,-8.858397603E-3,-1.195446551E-1,1.236629486E-2
2.860219990E1,-1.591390371E-2,-1.188355684E-1,2.427291870E-2
2.861813008E1,-2.063599974E-2,-1.173536777E-1,3.611946106E-2
2.863412129E1,-6.329618394E-3,-1.158890128E-1,4.796886444E-2
2.865005147E1,-6.300173700E-3,-1.094667912E-1,4.075717926E-2
2.866598164E1,8.273236454E-3,-1.175915003E-1,2.644348145E-2
2.868200337E1,8.284740150E-3,-1.116379201E-1,5.051708221E-2
2.869793355E1,-3.339797258E-3,-1.175453365E-1,3.637504578E-2
2.871392476E1,1.570370793E-2,-1.284020841E-1,2.444839478E-2
2.872985493E1,-5.952954292E-3,-1.075962782E-1,3.639125824E-2
2.874578511E1,3.640949726E-3,-9.524589777E-2,3.392219543E-2
2.876180684E1,-1.314096153E-2,-1.058013737E-1,2.191448212E-2
2.877776753E1,-1.107633114E-3,-1.049363911E-1,5.307006836E-2
2.879375874E1,-1.058824360E-3,-1.017158329E-1,5.558586121E-2
2.880971944E1,-3.459773958E-3,-1.194037497E-1,1.263809204E-2
2.882561909E1,-5.722858012E-3,-1.012578309E-1,7.901191711E-3
2.884161030E1,6.145298481E-3,-1.195267737E-1,2.460384369E-2
2.885754048E1,6.002232432E-3,-1.217662394E-1,4.127883911E-2
2.887353169E1,-8.544139564E-3,-1.030524671E-1,3.168678284E-2
2.888946187E1,1.059540361E-2,-1.086464822E-1,2.456569672E-2
2.890539204E1,-1.340350509E-2,-1.180801392E-1,6.057643890E-2
2.892141377E1,8.108153939E-3,-1.059434414E-1,4.152297974E-2
2.893737446E1,-6.288029253E-3,-1.037615836E-1,1.527214050E-2
2.895333516E1,8.915513754E-4,-1.151592731E-1,1.538753510E-2
2.896926533E1,1.055052876E-2,-8.001372218E-2,3.948879242E-2
2.898516499E1,2.012809366E-2,-1.092648208E-1,4.195594788E-2
2.900112568E1,-1.089113951E-2,-8.936014771E-2,1.813983917E-2
2.901714741E1,-1.213140786E-3,-9.792411327E-2,4.212093353E-2
2.903310811E1,-1.557733119E-2,-7.830092311E-2,3.735160828E-2
2.904909932E1,-3.545857966E-3,-9.388539195E-2,5.894756317E-2
2.906506001E1,-1.075609773E-2,-9.037253261E-2,5.669498444E-2
2.908108174E1,-5.871027708E-3,-9.747764468E-2,3.285408020E-2
2.909698140E1,-5.699053407E-3,-1.008960009E-1,3.779602051E-2
2.911297261E1,6.240025163E-3,-9.994825721E-2,2.346992493E-2
2.912893330E1,-3.534734249E-3,-1.075839102E-1,3.532600403E-2
2.914495503E1,-5.757734179E-3,-1.076124609E-1,6.146144867E-2
2.916094624E1,-7.915101945E-3,-8.152115345E-2,5.177497864E-2
2.917690694E1,1.121043414E-2,-9.638774395E-2,5.185222626E-2
2.919286763E1,-5.481392145E-4,-9.397590160E-2,3.528785706E-2
2.920885884E1,-9.989269078E-3,-1.056236923E-1,3.071022034E-2
2.922488057E1,-1.498118788E-2,-1.023930609E-1,3.324127197E-2
2.924087178E1,1.728326082E-3,-1.092157066E-1,6.820678711E-3
2.925686299E1,-2.969644964E-3,-8.795455098E-2,5.209827423E-2
2.927285420E1,-1.244600117E-2,-1.057957113E-1,4.477119446E-2
2.928878438E1,6.798021495E-3,-1.021937132E-1,3.284835815E-2
2.930471455E1,-7.463268936E-3,-1.102663279E-1,2.822017670E-2
2.932070576E1,-1.924167573E-2,-1.045537591E-1,2.117443085E-2
2.933672749E1,-1.668547094E-2,-1.206642687E-1,2.359294891E-2
2.935268818E1,-1.427260041E-2,-1.206030250E-1,3.067874908E-2
2.936867940E1,-9.521499276E-3,-1.030911207E-1,3.529930115E-2
2.938464009E1,-7.021181285E-3,-1.039824188E-1,3.516387939E-2
2.940063130E1,2.700887620E-3,-9.755438566E-2,5.667877197E-2
2.941659199E1,3.452226520E-4,-1.063434780E-1,4.952812195E-2
2.943258320E1,-1.150408387E-2,-1.116350591E-1,4.720973969E-2
2.944854390E1,-1.854242384E-2,-1.222032309E-1,-1.258945465E-2
2.946456563E1,-8.968107402E-3,-9.536364675E-2,3.292179108E-2
2.948055684E1,7.781244814E-3,-1.132128537E-1,3.297615051E-2
2.949654805E1,-4.127480090E-3,-9.304386377E-2,2.822875977E-2
2.951253926E1,-3.995440900E-3,-8.324828744E-2,3.312397003E-2
2.952856099E1,3.475755453E-3,-8.443126082E-2,6.679248810E-2
2.954455220E1,1.340188086E-2,-1.114144027E-1,9.502410889E-3
2.956051289E1,-3.269977868E-3,-9.463337064E-2,3.354740143E-2
2.957650410E1,-1.279509068E-2,-9.096908569E-2,4.307556152E-2
2.959249531E1,1.095747948E-2,-6.540775299E-2,2.618312836E-2
2.960845601E1,6.169006228E-3,-7.371094823E-2,1.885223389E-2
2.962441670E1,-1.302719116E-3,-7.043194771E-2,3.555202484E-2
2.964037739E1,-8.509911597E-3,-8.568161726E-2,4.998016357E-2
2.965639912E1,-1.329592615E-2,-8.015778661E-2,5.490112305E-2
2.967235982E1,9.652450681E-4,-9.383583069E-2,9.543418884E-3
2.968835103E1,8.232221007E-4,-9.231242537E-2,2.876377106E-2
2.970431172E1,-6.175167859E-3,-8.530047536E-2,3.833103180E-2
2.972030293E1,-1.561603695E-2,-6.245896220E-2,3.588867188E-2
2.973623311E1,-1.287154853E-3,-7.504090667E-2,4.543972015E-2
2.975222432E1,3.656074405E-3,-5.460911989E-2,4.309749603E-2
2.976818501E1,-8.383132517E-3,-6.356057525E-2,3.365135193E-2
2.978420674E1,-3.478452563E-3,-7.221847773E-2,3.139972687E-2
2.980019795E1,-3.494791687E-3,-8.002638817E-2,2.190113068E-2
2.981618916E1,-3.304943442E-3,-7.797238231E-2,5.779647827E-2
2.983214986E1,-1.759532839E-2,-5.398049951E-2,4.093360901E-2
2.984811055E1,1.428827643E-3,-7.060757279E-2,4.323196411E-2
2.986407124E1,-1.327267289E-2,-5.998834968E-2,3.838920593E-2
2.988006245E1,5.960553885E-3,-6.090733409E-2,4.084587097E-2
2.989602315E1,-1.196213067E-3,-5.830326676E-2,4.574680328E-2
2.991198384E1,-8.277632296E-3,-6.803861260E-2,5.302524567E-2
2.992794453E1,6.036922336E-3,-7.107266784E-2,3.863239288E-2
2.994387471E1,-3.648921847E-3,-6.125128269E-2,1.928329468E-2
2.995989644E1,5.634792149E-3,-5.079093575E-2,5.253601074E-2
2.997579610E1,-8.641555905E-3,-4.835027456E-2,6.191158295E-2
2.999178731E1,-8.622631431E-3,-6.241917610E-2,7.150077820E-2
3.000771748E1,5.754947662E-3,-7.118290663E-2,4.051113129E-2
3.002373921E1,-1.080498844E-2,-6.616181135E-2,7.101058960E-3
3.003966939E1,-1.531517506E-2,-7.748889923E-2,1.191520691E-2
3.005569111E1,-3.452666104E-3,-5.489316583E-2,2.841567993E-2
3.007165181E1,-2.046698332E-2,-5.400124192E-2,4.012680054E-2
3.008767354E1,3.120765090E-3,-6.058123708E-2,5.192852020E-2
3.010366475E1,-1.621992141E-2,-5.880355835E-2,4.472351074E-2
3.011965596E1,-1.377716660E-2,-5.518478155E-2,5.195617676E-2
3.013555562E1,-8.964210749E-3,-5.982738733E-2,1.126003265E-2
3.015154683E1,-3.278698772E-2,-7.522386312E-2,3.745460510E-2
3.016750752E1,1.020699739E-2,-6.066983938E-2,2.041435242E-2
3.018352925E1,-1.609379053E-2,-4.951751232E-2,3.685665131E-2
3.019952046E1,-1.385951042E-2,-4.560950398E-2,6.776332855E-2
3.021548115E1,5.331262946E-3,-3.942722082E-2,3.181076050E-2
3.023144185E1,1.020466536E-2,-4.452851415E-2,2.470779419E-2
3.024740254E1,-6.667606533E-3,-7.319438457E-2,1.522827148E-2
3.026333272E1,1.001138985E-2,-6.174558401E-2,1.999664307E-2
3.027932393E1,-1.169756800E-2,-5.465549231E-2,1.262664795E-2
3.029534566E1,-1.202800870E-2,-5.262860656E-2,3.149700165E-2
3.031133687E1,2.140931785E-3,-5.008760095E-2,5.278491974E-2
3.032729756E1,4.376932979E-3,-4.437893629E-2,5.495166779E-2
3.034322774E1,-5.162060261E-3,-4.375702143E-2,2.846527100E-2
3.035921895E1,-1.976662874E-2,-5.112326145E-2,6.189441681E-2
3.037517964E1,-5.502611399E-3,-4.851877689E-2,2.111625671E-2
3.039114033E1,-3.220885992E-3,-4.490250349E-2,1.859855652E-2
3.040707051E1,-8.189857006E-3,-4.741388559E-2,2.561187744E-2
3.042300068E1,-1.328632981E-2,-3.082665801E-2,5.170154572E-2
3.043896138E1,-1.511409879E-3,-3.854674101E-2,2.032089233E-2
3.045495259E1,-9.016379714E-3,-3.350448608E-2,5.361747742E-2
3.047094380E1,-4.276752472E-3,-3.614500165E-2,1.993846893E-2
3.048690449E1,-1.140405983E-2,-5.332231522E-2,5.097389221E-2
3.050292622E1,-6.687119603E-3,-2.736786008E-2,2.215766907E-2
3.051891743E1,-1.152379811E-2,-5.223578215E-2,3.402519226E-2
3.053487813E1,1.473697275E-2,-5.667850375E-2,3.635787964E-2
3.055086934E1,3.101080656E-4,-2.650067210E-2,3.633022308E-2
3.056683003E1,-2.137802541E-3,-2.826905251E-2,5.064201355E-2
3.058282124E1,-4.547059536E-3,-3.028598428E-2,3.860950470E-2
3.059881245E1,2.503462136E-3,-2.028724551E-2,5.291748047E-2
3.061480366E1,-9.435705841E-3,-4.020571709E-2,3.852844238E-2
3.063079487E1,4.942961037E-3,-2.358379960E-2,3.852367401E-2
3.064675557E1,-1.416570693E-2,-2.017593384E-2,3.848266602E-2
3.066271626E1,1.696422696E-2,-9.229570627E-3,2.648258209E-2
3.067873799E1,-4.715554416E-3,-1.365029812E-2,2.867794037E-2
3.069463765E1,-2.442531288E-3,-2.127945423E-3,5.725955963E-2
3.071062886E1,-4.113912582E-4,-1.089528203E-2,4.996967316E-2
3.072658955E1,9.061113000E-3,5.911290646E-3,4.751110077E-2
3.074261128E1,-2.947911620E-3,6.999194622E-3,3.789901733E-2
3.075860249E1,-1.265280694E-2,-2.660483122E-3,4.747486115E-2
3.077453267E1,-5.654521286E-3,1.545387506E-2,3.793811798E-2
3.079052388E1,-3.300197423E-3,-6.090998650E-3,4.997634888E-2
3.080648457E1,-7.181540132E-4,-2.264767885E-3,2.846527100E-2
3.082250630E1,-1.015324146E-2,8.700281382E-3,2.364730835E-2
3.083840596E1,-1.503552496E-2,-1.906394958E-3,3.791809082E-2
3.085442769E1,-3.352873027E-3,3.438244760E-2,3.540706635E-2
3.087038838E1,-5.841560662E-3,3.131891787E-2,5.447864532E-2
3.088641011E1,-1.390121877E-3,2.107182145E-2,5.446529388E-2
3.090237080E1,-3.872312605E-3,3.533436358E-2,4.255580902E-2
3.091836201E1,-3.953397274E-3,2.957922220E-2,3.069114685E-2
3.093429219E1,-1.340807229E-2,2.001664042E-2,2.836132050E-2
3.095028340E1,-1.336526871E-2,3.419776261E-2,6.808280945E-3
3.096624409E1,9.368062019E-4,3.941987455E-2,4.027366638E-2
3.098217427E1,1.533667743E-2,2.606508136E-2,4.502391815E-2
3.099816548E1,8.351914585E-3,3.771944344E-2,5.698299408E-2
3.101406514E1,1.227602363E-3,5.016925931E-2,3.544807434E-2
3.103002583E1,1.553103328E-2,4.545603693E-2,2.826786041E-2
3.104601704E1,1.118242741E-3,2.088537812E-2,4.261589050E-2
3.106200825E1,-3.810092807E-3,4.353411496E-2,4.018878937E-2
3.107799946E1,1.045552641E-2,5.828492343E-2,4.253005981E-2
3.109396016E1,5.403488874E-3,5.462780595E-2,5.207538605E-2
3.110995137E1,-6.515942514E-3,3.962396085E-2,3.529930115E-2
3.112591206E1,-4.260212183E-3,5.560250580E-2,4.006862640E-2
3.114193379E1,-6.647579372E-3,5.612088740E-2,5.438327789E-2
3.115783345E1,2.781227231E-3,4.944512248E-2,2.560520172E-2
3.117385518E1,7.489733398E-3,7.197180390E-2,4.232788086E-2
3.118984639E1,-4.531472921E-3,6.790158153E-2,4.707241058E-2
3.120580708E1,-2.461843193E-3,5.642573535E-2,4.702758789E-2
3.122176777E1,1.311525702E-4,6.497368217E-2,3.502845764E-2
3.123778950E1,-7.014825940E-3,5.628408492E-2,3.738307953E-2
3.125375020E1,-1.960277557E-3,8.793424070E-2,4.212093353E-2
3.126971089E1,7.572963834E-3,7.401998341E-2,3.967857361E-2
3.128567158E1,-6.851911545E-3,5.227592587E-2,4.919147491E-2
3.130169331E1,2.526767552E-3,7.804502547E-2,3.954315186E-2
3.131768452E1,-7.185690105E-3,4.832287133E-2,3.467464447E-2
3.133367573E1,1.423656940E-2,6.398470700E-2,2.980327606E-2
3.134966694E1,-1.464454085E-2,6.534381211E-2,4.408931732E-2
3.136562764E1,-4.804387689E-3,6.260527670E-2,4.881000519E-2
3.138155781E1,-7.395021617E-3,8.499307930E-2,3.919982910E-2
3.139751851E1,-7.238574326E-3,9.339182079E-2,4.395961761E-2
3.141354024E1,-4.884935915E-3,8.488193154E-2,2.238082886E-2
3.142950093E1,1.690354943E-2,7.873187959E-2,5.107784271E-2
3.144549214E1,-2.316057682E-3,7.712891698E-2,5.822563171E-2
3.146145283E1,-4.612192512E-3,8.404746652E-2,2.464580536E-2
3.147744404E1,7.363229990E-3,8.536389470E-2,2.217483521E-2
3.149337422E1,2.659417689E-3,6.575381756E-2,5.323696136E-2
3.150933491E1,4.718080163E-4,7.750062644E-2,4.604625702E-2
3.152526509E1,-9.129092097E-3,6.557157636E-2,2.934074402E-2
3.154119527E1,3.139175475E-3,6.220716238E-2,2.223777771E-2
3.155715596E1,1.759338379E-2,7.095600665E-2,5.339717865E-2
3.157317769E1,5.307242274E-3,7.893913984E-2,4.139328003E-2
3.158913838E1,-1.411975920E-2,8.003240824E-2,3.173828125E-2
3.160512959E1,9.746901691E-3,8.289700747E-2,5.319404602E-2
3.162105977E1,4.681915045E-3,8.177702129E-2,5.791091919E-2
3.163708150E1,-5.104571581E-3,1.033173725E-1,3.871059418E-2
3.165304219E1,4.453659058E-3,8.035358787E-2,4.586315155E-2
3.166900288E1,6.994299591E-3,9.088990837E-2,4.827594757E-2
3.168499409E1,-2.169797570E-2,8.006589115E-2,2.435779572E-2
3.170098530E1,9.545572102E-3,8.759679645E-2,4.351711273E-2
3.171697652E1,-7.121078670E-3,9.802263975E-2,1.954174042E-2
3.173293721E1,-2.363324165E-5,9.182675183E-2,4.101181030E-2
3.174892842E1,-2.561658621E-4,8.770404756E-2,3.853797913E-2
3.176488911E1,1.121675223E-2,9.368709475E-2,5.762577057E-2
3.178091084E1,-1.288374513E-2,9.114599973E-2,4.560756683E-2
3.179677998E1,1.348958910E-2,8.879861981E-2,6.954956055E-2
3.181280171E1,8.818551898E-3,9.396605939E-2,2.411270142E-2
3.182879292E1,-5.765482783E-4,8.644136786E-2,2.893924713E-2
