"Time (s)","Linear Acceleration x (m/s^2)","Linear Acceleration y (m/s^2)","Linear Acceleration z (m/s^2)"
3.725783700E-2,1.286831498E-2,-1.396040246E-2,2.247142792E-2
5.324904800E-2,-1.643542200E-2,-1.099371165E-2,2.486801147E-2
6.917922300E-2,9.328566492E-3,-1.999912784E-2,6.078338623E-2
8.520095200E-2,-5.608931184E-3,-1.463937759E-2,5.120944977E-2
1.012226800E-1,-1.347056031E-2,4.171326756E-3,5.352210999E-2
1.171833740E-1,7.503710687E-3,-1.201559976E-2,4.394817352E-2
1.331440670E-1,-2.524554729E-4,-1.866307110E-3,3.198051453E-2
1.491352780E-1,-2.932637930E-3,-2.066370100E-3,4.873085022E-2
1.650959710E-1,6.882645190E-3,-1.006836444E-2,-3.269767761E-2
1.810566650E-1,-2.530068159E-4,2.014878765E-2,7.741451263E-2
1.970478760E-1,-8.980348706E-3,1.187223941E-2,1.280879974E-2
2.130085690E-1,7.969893515E-3,-5.794458091E-3,1.037654877E-1
2.289997800E-1,2.372689545E-3,1.087977737E-2,-3.026199341E-2
2.449604730E-1,2.564005554E-3,7.625043392E-3,-2.549743652E-2
2.609211670E-1,4.803732038E-3,6.757281721E-3,5.115127563E-2
2.769428950E-1,-9.417988360E-3,8.347086608E-3,-4.224777222E-2
2.929341060E-1,-9.322464466E-3,2.175597847E-2,1.061716080E-1
3.088948000E-1,1.907156408E-2,-2.956725657E-3,-5.425643921E-2
3.248554930E-1,-3.520399332E-5,2.252637595E-2,7.261848450E-2
3.408161860E-1,1.178743690E-2,1.686346903E-2,-3.513526917E-2
3.568073970E-1,-2.662435174E-3,1.105559245E-2,7.658004761E-4
3.727680910E-1,-1.697792113E-2,2.198936045E-2,5.342483521E-2
3.887287840E-1,1.166202873E-2,8.937837556E-3,1.510810852E-2
4.047505120E-1,4.515714943E-3,5.323746055E-2,1.108655930E-1
4.207417230E-1,1.148694754E-2,3.279269487E-2,-5.194473267E-2
4.367024170E-1,1.684948802E-3,3.590722382E-2,9.409904480E-2
4.526631100E-1,-8.257180452E-4,6.049838662E-2,-2.800941467E-2
4.686543210E-1,-5.722753704E-3,3.928828239E-2,-1.604080200E-2
4.846455320E-1,-2.011262625E-2,4.894905165E-2,5.338954926E-2
5.005757080E-1,1.565562934E-2,5.144422501E-2,-1.125526428E-2
5.166279540E-1,-1.801492274E-2,5.378953367E-2,1.252164841E-1
5.326191650E-1,-1.422502100E-3,4.413175955E-2,-7.589530945E-2
5.486103760E-1,1.771565527E-2,5.822090805E-2,7.972812653E-2
5.645710690E-1,-1.337790489E-2,5.316288769E-2,-2.561759949E-2
5.805317620E-1,1.123718917E-3,5.517280102E-2,8.690929413E-2
5.964924560E-1,1.205444336E-3,6.917947531E-2,5.339050293E-2
6.124531490E-1,2.029349655E-2,7.098125666E-2,-3.040409088E-2
6.284443600E-1,3.536619246E-3,6.789411604E-2,1.132507324E-1
6.444355710E-1,5.757212639E-3,7.686454058E-2,-7.109928131E-2
6.604573000E-1,-8.586056530E-3,6.654872000E-2,1.509380341E-2
6.764179930E-1,-1.686029136E-3,8.004584908E-2,-4.054069519E-3
6.923786860E-1,-6.543032825E-3,7.624040544E-2,2.707386017E-2
7.083698970E-1,2.945572138E-3,6.536857039E-2,4.383468628E-2
7.243305910E-1,3.290876746E-3,8.328001946E-2,1.270866394E-2
7.402912840E-1,9.243339300E-4,7.940468937E-2,3.665256500E-2
7.562824950E-1,2.270787954E-2,7.806205004E-2,1.270961761E-2
7.723042230E-1,5.854241550E-3,8.867326379E-2,7.925033569E-3
7.882649170E-1,-1.358635724E-3,9.183991700E-2,5.532264709E-3
8.042866450E-1,1.289028674E-2,8.032375574E-2,1.990032196E-2
8.202473390E-1,7.659420371E-4,7.844920456E-2,2.469158173E-2
8.362080320E-1,-6.500758231E-3,6.715947390E-2,-1.643180847E-3
8.521687250E-1,5.479060113E-3,9.187100828E-2,-8.822441101E-3
8.681294190E-1,-3.995060921E-3,6.390689313E-2,-8.822441101E-3
8.841511470E-1,-3.845788538E-3,9.094889462E-2,2.469635010E-2
9.001423580E-1,8.138358593E-3,7.969312370E-2,4.385185242E-2
9.161030520E-1,-1.098573208E-2,7.807141542E-2,3.152847290E-3
9.320637450E-1,-1.421853900E-3,7.617734373E-2,1.273059845E-2
9.480549560E-1,1.766442508E-2,9.101619571E-2,1.991558075E-2
9.640461670E-1,-1.096495241E-2,8.890161663E-2,2.231025696E-2
9.800068600E-1,-3.678321838E-3,6.994686276E-2,1.512527466E-2
9.959980710E-1,-1.318632811E-2,9.633579105E-2,1.273155212E-2
1.011989282E0,-3.480680287E-3,9.401933849E-2,1.273059845E-2
1.027980493E0,-5.787059665E-3,9.155274928E-2,7.940292358E-3
1.043941186E0,-5.662456155E-3,9.385316819E-2,3.149986267E-3
1.059901880E0,-3.166638315E-3,1.058663204E-1,-1.839923859E-2
1.075893091E0,2.795837075E-2,8.459007740E-2,1.990890503E-2
1.091884302E0,-3.383561969E-3,8.723882586E-2,1.512432098E-2
1.107844995E0,-9.398981929E-4,1.064045057E-1,1.991176605E-2
1.123805688E0,-5.871489644E-3,8.030847460E-2,1.752090454E-2
1.139827417E0,6.235428154E-3,8.305751532E-2,2.949047089E-2
1.155788110E0,3.687165678E-3,8.320266008E-2,2.709865570E-2
1.171748803E0,3.621354699E-3,9.305194765E-2,1.512908936E-2
1.187740014E0,-6.158493459E-3,7.427445054E-2,4.625797272E-2
1.203731225E0,5.801022053E-3,1.128735542E-1,7.951736450E-3
1.219661401E0,5.924940109E-3,8.428588510E-2,1.752758026E-2
1.235683130E0,-1.134507358E-3,9.628635645E-2,7.949829102E-3
1.251643823E0,1.326040924E-2,1.009485126E-1,5.554199219E-3
1.267635034E0,1.566775888E-2,1.054908931E-1,-1.629829407E-3
1.283595727E0,3.675952554E-3,1.075437963E-1,-4.025459290E-3
1.299525903E0,1.096226275E-3,1.069857255E-1,1.273632050E-2
1.315578149E0,-1.423455775E-3,8.745277673E-2,1.991844177E-2
1.331569360E0,8.122622967E-3,8.266731352E-2,7.648468018E-4
1.347560571E0,1.029654592E-2,8.966226131E-2,1.273918152E-2
1.363521264E0,-6.455421448E-3,8.734661341E-2,1.034450531E-2
1.379481958E0,1.262690127E-2,6.603360921E-2,7.952690125E-3
1.395473169E0,-1.630575210E-2,7.604039460E-2,2.710914612E-2
1.411464380E0,-2.339447290E-2,9.301411361E-2,7.724761963E-4
1.427394555E0,-4.166096449E-3,8.598181605E-2,7.715225220E-4
1.443355249E0,3.077395260E-3,9.834086895E-2,7.724761963E-4
1.459376977E0,-8.765831590E-3,1.007303596E-1,2.471256256E-2
1.475368188E0,3.316201270E-3,9.119939059E-2,7.952690125E-3
1.491328882E0,1.046711951E-2,1.007473171E-1,7.705688477E-4
1.507320093E0,-6.387121975E-3,8.156761527E-2,1.753044128E-2
1.523311303E0,7.888510823E-3,1.007886231E-1,3.167152405E-3
1.539302514E0,7.963337004E-3,9.352467954E-2,5.558967590E-3
1.555263208E0,-8.754841983E-3,9.320165217E-2,1.274108887E-2
1.571254419E0,-1.698493958E-3,8.107000589E-2,5.558967590E-3
1.587215112E0,5.523018539E-3,7.395990938E-2,1.274204254E-2
1.603175805E0,-6.556645036E-3,8.140626550E-2,-1.622200012E-3
1.619136499E0,2.454224229E-2,7.939410210E-2,2.471637726E-2
1.635127710E0,7.788196206E-3,7.980408520E-2,5.563735962E-3
1.651088403E0,5.679577589E-4,9.690128267E-2,1.753711700E-2
1.667018579E0,-1.655541360E-3,8.770067990E-2,7.762908936E-4
1.683040307E0,-1.117215306E-2,9.029045701E-2,-1.119518280E-2
1.699062036E0,3.156080842E-3,7.004983723E-2,5.553245544E-3
1.715022729E0,-4.263438284E-3,8.997105807E-2,1.273441315E-2
1.731013940E0,4.837587476E-4,9.553554654E-2,1.512527466E-2
1.746974634E0,-1.962088048E-3,7.955864072E-2,1.272678375E-2
1.762935327E0,3.517866135E-4,7.473558187E-2,1.990509033E-2
1.778896020E0,2.725943923E-4,8.594153821E-2,1.989936829E-2
1.794917749E0,-7.020413876E-3,7.827923447E-2,1.989555359E-2
1.810908960E0,1.205109060E-2,7.086358219E-2,7.922172546E-3
1.826900171E0,-4.796549678E-3,5.884309858E-2,-6.445884705E-3
1.842860864E0,-1.691017300E-2,6.832967699E-2,1.988983154E-2
1.858821557E0,6.967365742E-3,5.647767335E-2,3.129959106E-3
1.874843286E0,-3.589764237E-4,6.404776871E-2,3.130912781E-3
1.890865014E0,6.903208792E-3,6.708890200E-2,5.522727966E-3
1.906856225E0,-9.818807244E-3,6.304711848E-2,-1.661300659E-3
1.922816919E0,1.174465567E-2,6.150851771E-2,3.128051758E-3
1.938777612E0,-2.628393471E-3,5.275157094E-2,2.707004547E-2
1.954799341E0,2.164192498E-3,4.649376497E-2,1.031112671E-2
1.970790552E0,-5.078755319E-3,6.184919924E-2,5.523681641E-3
1.986720727E0,-2.899616957E-3,3.430403024E-2,1.031589508E-2
2.002681421E0,-2.812042832E-3,4.524608701E-2,1.031589508E-2
2.018642114E0,-5.110956728E-3,4.894212261E-2,-1.362609863E-2
2.034633325E0,-2.797096968E-4,6.211763248E-2,7.922172546E-3
2.050624536E0,-7.348231971E-3,5.142691731E-2,2.946949005E-2
2.066554712E0,4.617325962E-3,3.616283834E-2,5.528450012E-3
2.082545923E0,6.833501160E-3,4.718794674E-2,7.925987244E-3
2.098598169E0,4.318729043E-3,4.619748518E-2,5.534172058E-3
2.114589380E0,1.389901340E-2,3.586816043E-2,5.535125732E-3
2.130550073E0,-4.746690392E-4,3.749520704E-2,3.426742554E-2
2.146541284E0,9.087428451E-3,4.400520399E-2,2.229785919E-2
2.162501977E0,-3.141358495E-3,4.322155565E-2,7.937431335E-3
2.178462671E0,-3.392338753E-3,2.577359416E-2,1.991176605E-2
2.194453882E0,1.256003976E-3,3.959666565E-2,2.709770203E-2
2.210445093E0,-2.279419452E-2,3.906698152E-2,1.512813568E-2
2.226436303E0,3.556430340E-3,2.888227068E-2,-4.024505615E-3
2.242396997E0,-3.493994474E-3,3.547806293E-2,-4.025459290E-3
2.258357690E0,-1.782383025E-2,2.997424081E-2,7.947921753E-3
2.274379419E0,-9.433999658E-4,3.665096313E-2,-1.630783081E-3
2.290401147E0,-1.004405320E-3,3.382057324E-2,7.949829102E-3
2.306361841E0,-1.281583309E-2,3.579011187E-2,3.159523010E-3
2.322292016E0,9.041987360E-3,1.627270132E-2,3.156661987E-3
2.338313745E0,-1.696951687E-2,3.746488690E-2,1.991271973E-2
2.354274438E0,2.009049058E-4,3.231846541E-2,-4.034042358E-3
2.370204614E0,5.550213158E-3,3.194671497E-2,3.187370300E-2
2.386195825E0,-1.841837913E-2,2.673435584E-2,-8.827209473E-3
2.402156518E0,-1.366717368E-2,3.098704107E-2,-1.643180847E-3
2.418056177E0,1.480714977E-2,4.009683430E-2,3.149986267E-3
2.434108423E0,5.101062357E-3,3.229223937E-2,2.230739594E-2
2.450099634E0,8.613616228E-5,3.902593255E-2,7.946014404E-3
2.466090845E0,-6.258487701E-5,4.101780057E-2,5.555152893E-3
2.482051538E0,-2.383336425E-3,2.167428471E-2,3.667926788E-2
2.498012231E0,-7.295891643E-3,2.634638175E-2,5.556106567E-3
2.514003442E0,3.283623606E-2,6.940032542E-2,4.626464844E-2
2.530025171E0,-8.585512638E-3,-8.783126250E-3,-1.837253571E-2
2.545985864E0,1.446286589E-2,1.367144473E-2,2.473163605E-2
2.561946557E0,-2.916611731E-3,1.933917589E-2,1.276683807E-2
2.577907251E0,-8.069701493E-3,5.643745884E-3,-3.990173340E-3
2.593898462E0,-1.529709250E-2,3.938704729E-2,3.192901611E-3
2.609859155E0,8.861474693E-3,2.490536682E-2,1.516151428E-2
2.625819848E0,-7.615014911E-4,3.931334615E-2,1.276779175E-2
2.641841577E0,-8.221335709E-3,2.580052055E-2,1.516342163E-2
2.657863305E0,1.484707743E-2,1.078184880E-2,2.235412598E-2
2.673793481E0,-1.153871417E-4,1.493034512E-2,1.038646698E-2
2.689754175E0,1.947887242E-3,1.857055910E-2,5.599975586E-3
2.705745386E0,-2.463763207E-2,2.209883370E-2,1.757240295E-2
2.721736596E0,-1.063645631E-2,2.774624899E-2,1.039218903E-2
2.737636255E0,-2.051883936E-2,4.804944247E-2,-6.364822388E-3
2.753657983E0,4.154443741E-4,2.081209794E-2,1.040077209E-2
2.769649194E0,-9.828887880E-3,2.096840553E-2,3.674316406E-2
2.785640405E0,-5.803003907E-3,9.191751480E-3,-1.557350159E-3
2.801570581E0,-4.594907165E-3,1.434033737E-2,1.521587372E-2
2.817531274E0,-2.970308065E-3,5.244225264E-3,-3.928184509E-3
2.833522485E0,1.598568261E-2,9.704655036E-3,-1.531600952E-3
2.849452661E0,-7.749438286E-3,3.837751597E-2,4.635047913E-2
2.865443872E0,3.242954612E-3,7.051555440E-4,3.269195557E-3
2.881404565E0,-1.833796501E-3,1.743738353E-2,1.524448395E-2
2.897395776E0,-6.867170334E-3,1.870217267E-3,2.243232727E-2
2.913386987E0,-4.336431623E-3,1.895767450E-2,1.045989990E-2
2.929347680E0,2.894759178E-3,1.527775172E-2,3.200817108E-2
2.945338891E0,-1.157346368E-2,1.070528477E-2,3.440570831E-2
2.961330102E0,1.528114080E-4,1.390283369E-2,1.286697388E-2
2.977351831E0,4.621252418E-3,1.951684803E-2,3.681850433E-2
2.993343042E0,-7.843002677E-3,1.504688524E-2,-1.476287842E-3
3.009303735E0,1.789769530E-2,2.657396346E-2,8.113861084E-3
3.025233911E0,2.235542238E-2,6.333965808E-3,1.290988922E-2
3.041255639E0,-2.127885818E-3,-1.061035134E-2,2.489376068E-2
3.057216333E0,-1.683267206E-2,7.331445813E-3,1.293849945E-2
3.073207544E0,-2.493113279E-4,-9.085629135E-3,1.774692535E-2
3.089229272E0,1.842054725E-2,-1.601252332E-2,1.299571991E-2
3.105220483E0,-5.857452750E-3,1.652892679E-3,1.543426514E-2
3.121181177E0,3.860339522E-3,6.898790598E-3,1.547622681E-2
3.137111352E0,-1.702123135E-2,3.849960864E-3,-1.082801819E-2
3.153102563E0,-9.296849370E-3,-1.941278577E-3,-2.036857605E-2
3.169093774E0,5.283087492E-3,7.838040590E-3,1.079082489E-2
3.185084985E0,2.556979656E-3,8.162014186E-3,1.323127747E-2
3.201045678E0,9.831011295E-3,2.667896450E-3,1.328754425E-2
3.217036889E0,5.465582013E-3,8.852802217E-3,-8.185386658E-3
3.233028100E0,1.301708817E-2,-6.846137345E-3,2.544021606E-2
3.248988794E0,1.406595111E-3,-3.974542022E-3,1.836872101E-2
3.264949487E0,1.130147278E-2,3.153532743E-4,6.505966187E-3
3.280910180E0,1.151527464E-2,-9.862601757E-3,1.835823059E-3
3.296901391E0,-4.981338978E-3,-1.453645527E-2,1.394367218E-2
3.312892602E0,-9.349524975E-3,1.313495636E-2,2.097129822E-3
3.328822778E0,-1.124124229E-2,-1.134216785E-2,-9.775161743E-3
3.344813989E0,5.756467581E-3,2.627506852E-3,4.661560059E-3
3.360805200E0,5.653172731E-3,-4.929244518E-3,2.628612518E-2
3.376857446E0,3.483414650E-3,-1.412788033E-2,3.359889984E-2
3.392818139E0,6.424084306E-3,-1.315042377E-3,3.378677368E-2
3.408778833E0,9.130612016E-3,-1.098650694E-2,1.486396790E-2
3.424770044E0,7.155805826E-3,-5.993247032E-3,7.930755615E-3
3.440791772E0,-2.176299691E-3,1.195533574E-2,8.165359497E-3
3.456813501E0,-8.851721883E-3,-1.751400530E-2,-2.036666870E-2
3.472774194E0,3.563463688E-3,5.142271519E-3,-1.544284821E-2
3.488734887E0,-3.593295813E-3,-5.777776241E-3,1.337051392E-2
3.504665063E0,8.174225688E-3,-4.353001714E-3,3.262233734E-2
3.520625757E0,-1.609370112E-3,1.020407677E-2,3.281116486E-2
3.536647485E0,-3.568574786E-3,5.608916283E-3,3.552055359E-2
3.552638696E0,-4.658252001E-4,-2.429723740E-2,2.157878876E-2
3.568629907E0,1.930296421E-2,-2.786889672E-2,1.245117188E-2
3.584590600E0,3.500282764E-4,-2.432462573E-2,-1.827239990E-2
3.600581811E0,-9.146369994E-3,-1.543638110E-2,2.271175385E-2
3.616573022E0,7.994025946E-4,-4.998445511E-3,2.289199829E-2
3.632564233E0,-6.289005280E-3,-1.913011074E-2,4.939365387E-2
3.648555444E0,5.635797977E-3,-1.736363769E-2,2.319812775E-2
3.664516137E0,3.547847271E-3,-8.620053530E-3,2.811813354E-2
3.680507348E0,1.328469813E-2,-1.450985670E-3,2.109813690E-2
3.696468042E0,-8.324086666E-4,-1.526752114E-2,-1.942062378E-2
3.712459253E0,1.626332104E-2,-1.572462916E-2,7.065773010E-3
3.728450464E0,-5.439445376E-3,-9.130865335E-3,1.679611206E-2
3.744441675E0,-7.985286415E-3,-3.018322587E-2,2.417373657E-2
3.760371850E0,1.107431948E-2,-1.655524969E-2,5.259513855E-3
3.776363061E0,8.456572890E-3,-3.061521053E-2,3.188133240E-2
3.792354272E0,1.096135378E-2,-1.765817404E-2,2.271175385E-2
3.808345483E0,1.122401655E-2,-3.449034691E-2,-3.153800964E-3
3.824306177E0,-2.667337656E-3,-2.451062202E-2,1.161575317E-2
3.840327905E0,-7.424160838E-3,-1.449888945E-2,3.587627411E-2
3.856288598E0,-1.945114881E-2,-1.873603463E-2,2.423477173E-2
3.872279809E0,-2.338558435E-3,-1.512759924E-2,1.501941681E-2
3.888271020E0,-9.302705526E-3,-2.134951949E-2,-8.563995361E-3
3.904262231E0,-3.999888897E-3,-1.611974835E-2,4.444503784E-2
3.920192407E0,5.877777934E-3,-3.196391463E-2,-6.771087646E-4
3.936183618E0,1.616016030E-3,-2.391716838E-2,-2.700805664E-3
3.952144311E0,4.494145513E-3,-9.323924780E-3,2.433776855E-3
3.968074487E0,-4.569448531E-3,-1.519972086E-2,1.708698273E-2
3.984065698E0,1.470730454E-2,-2.922374010E-2,1.973056793E-2
4.000026391E0,5.150057375E-3,-2.708074450E-2,3.431987762E-2
4.015956567E0,-1.892048120E-2,-2.706465125E-2,1.301193237E-2
4.032008813E0,9.337745607E-3,-5.374285579E-2,3.000068665E-2
4.048000024E0,-2.760313451E-3,-2.936023474E-2,2.056884766E-2
4.063991235E0,1.161859930E-2,-3.320923448E-2,1.343441010E-2
4.079951928E0,-1.215637475E-2,-3.379657865E-2,8.613586426E-3
4.095912622E0,1.422946900E-2,-1.452961564E-2,2.058982849E-2
4.111964868E0,4.402592778E-3,-3.849554062E-2,2.789592743E-2
4.127956079E0,-1.210304350E-2,-3.095573187E-2,1.139736176E-2
4.143947290E0,-1.159094274E-2,-1.805710793E-2,1.899623871E-2
4.159907983E0,5.628302693E-3,-4.126948118E-2,3.629589081E-2
4.175899194E0,1.102864742E-3,-3.056252003E-2,3.352165222E-3
4.191859887E0,-1.051880419E-3,-6.056237221E-2,8.727073669E-3
4.207820581E0,-3.249987960E-3,-2.883869410E-2,1.887416840E-2
4.223811792E0,8.923776448E-3,-2.448910475E-2,1.939392090E-2
4.239772485E0,-5.292423069E-3,-3.144186735E-2,2.221679688E-2
4.255733178E0,2.064220607E-3,-4.439514875E-2,3.694438934E-2
4.271724389E0,2.369740605E-2,-4.283988476E-2,1.577091217E-2
4.287715600E0,-5.659982562E-4,-2.901518345E-2,1.138496399E-2
4.303676294E0,1.362036914E-2,-2.977341413E-2,1.177787781E-2
4.319698022E0,8.565939963E-3,-3.996407986E-2,9.790420532E-3
4.335658716E0,-8.200079203E-3,-4.012304544E-2,1.022720337E-2
4.351619409E0,6.431601942E-3,-3.927993774E-2,2.254867554E-2
4.367580102E0,1.722402871E-3,-3.856164217E-2,-5.987167358E-3
4.383510278E0,4.386484623E-3,-4.159432650E-2,1.566886902E-2
4.399532007E0,-2.863258123E-5,-4.585582018E-2,1.484870911E-3
4.415553735E0,7.305406034E-3,-4.433393478E-2,3.285980225E-2
4.431514428E0,-1.194809377E-2,-3.681159019E-2,1.882457733E-2
4.447444604E0,-2.314597368E-3,-2.814787626E-2,2.402114868E-2
4.463435815E0,1.446096599E-2,-3.639298677E-2,2.218627930E-2
4.479396509E0,1.008195430E-2,-4.289585352E-2,2.286720276E-2
4.495326684E0,-4.074685276E-3,-2.282607555E-2,-2.447128296E-2
4.511348413E0,2.010075748E-2,-4.661256075E-2,1.656532288E-2
4.527339624E0,-3.708168864E-3,-4.343730211E-2,2.157115936E-2
4.543330835E0,-8.367486298E-3,-2.370035648E-2,2.620697021E-3
4.559291528E0,1.081494242E-2,-2.394956350E-2,3.422927856E-2
4.575252221E0,6.027422845E-3,-3.265190125E-2,4.403495789E-2
4.591243432E0,2.758070827E-2,-3.188979626E-2,2.048492432E-2
4.607204126E0,8.602991700E-3,-4.931020737E-2,-5.730628967E-3
4.623164819E0,-1.524300128E-2,-5.893284082E-2,6.066322327E-3
4.639125512E0,2.057410032E-2,-5.093669891E-2,1.519489288E-2
4.655086206E0,-8.324623108E-3,-7.157963514E-2,4.348945618E-2
4.671077417E0,2.464694530E-2,-6.289321184E-2,2.890300751E-2
4.687038110E0,1.002686471E-2,-6.349867582E-2,-9.443283081E-3
4.703029321E0,2.863816917E-3,-7.860189676E-2,1.940155029E-2
4.719020532E0,2.845734358E-3,-1.049025655E-1,2.435874939E-2
4.735042261E0,5.365632474E-3,-9.060990810E-2,-1.395511627E-2
4.751002954E0,1.257184893E-2,-9.445172548E-2,1.450824738E-2
4.766963647E0,6.677359343E-4,-9.827870131E-2,5.015754700E-2
4.782924341E0,2.190785855E-2,-9.470093250E-2,1.911735535E-2
4.798885034E0,-6.900526583E-3,-1.139604449E-1,1.465415955E-2
4.814906762E0,9.795911610E-3,-1.236155629E-1,2.695369720E-2
4.830867456E0,1.206392050E-2,-1.300232410E-1,5.628585815E-3
4.846828149E0,-1.593232155E-4,-1.146033406E-1,-3.260135651E-2
4.862819360E0,-2.453237772E-3,-1.138148904E-1,-1.758575439E-3
4.878841089E0,-1.702155173E-2,-9.892970324E-2,4.963874817E-3
4.894862817E0,-5.046673119E-3,-1.220886707E-1,2.863025665E-2
4.910823511E0,4.512690008E-3,-1.286962032E-1,3.106403351E-2
4.926753686E0,1.867083460E-2,-1.370331049E-1,1.926422119E-4
4.942744897E0,9.105183184E-3,-1.324340105E-1,7.693290710E-3
4.958705591E0,-1.725330204E-2,-1.597799063E-1,1.274585724E-2
4.974727319E0,6.682366133E-3,-1.380795240E-1,-1.118564606E-2
4.990688012E0,6.658524275E-3,-1.446635723E-1,3.054618835E-3
5.006648706E0,9.044103324E-3,-1.623393297E-1,7.779121399E-3
5.022609399E0,4.241049290E-3,-1.440440416E-1,-6.645202637E-3
5.038600610E0,-1.507649571E-2,-1.440208554E-1,-1.159763336E-2
5.054622339E0,-1.271694899E-2,-1.329603791E-1,5.100250244E-3
5.070583032E0,1.099772751E-2,-1.303011775E-1,-1.147270203E-2
5.086543725E0,8.410796523E-3,-1.272836924E-1,1.268291473E-2
5.102473901E0,6.091699004E-3,-1.624405384E-1,-6.081581116E-3
5.118434595E0,-1.061667502E-2,-1.674789190E-1,-1.311302185E-2
5.134456323E0,8.608922362E-3,-1.568304300E-1,-1.098346710E-2
5.150417016E0,1.093591750E-2,-1.424766779E-1,2.921581268E-2
5.166377710E0,-1.408621669E-3,-1.537808776E-1,5.271148682E-2
5.182368921E0,3.000169992E-3,-1.376563311E-1,3.351879120E-2
5.198360132E0,-1.628691703E-2,-1.644699574E-1,1.226997375E-2
5.214351343E0,9.919799864E-3,-1.676720381E-1,-1.378726959E-2
5.230312036E0,4.195421934E-4,-1.512991190E-1,-1.844406128E-3
5.246272729E0,-4.139460623E-3,-1.667441130E-1,9.882926941E-3
5.262263940E0,4.997327924E-4,-1.345886588E-1,9.624481201E-3
5.278224634E0,-6.811663508E-3,-1.676182747E-1,-8.201599121E-5
5.294124292E0,-1.162676513E-2,-1.549670100E-1,1.672363281E-2
5.310146020E0,9.798385203E-3,-1.598091125E-1,7.309913635E-3
5.326137231E0,2.476915717E-3,-1.486236453E-1,-6.941795349E-3
5.342128442E0,7.355526090E-3,-1.643027067E-1,-4.639625549E-3
5.358089136E0,-2.392590046E-3,-1.531841159E-1,2.147388458E-2
5.374049829E0,-7.323496044E-3,-1.576524973E-1,6.968498230E-3
5.390041040E0,4.479788244E-3,-1.573023200E-1,2.136039734E-2
5.406001733E0,6.612531841E-3,-1.504108906E-1,1.432609558E-2
5.421962427E0,-1.517026126E-2,-1.570820212E-1,7.346153259E-3
5.437923120E0,-8.048370481E-3,-1.685712934E-1,-2.030372620E-3
5.453944848E0,-5.739092827E-3,-1.723172665E-1,-1.153469086E-2
5.469905542E0,-1.056800783E-2,-1.762196422E-1,-1.403236389E-2
5.485835718E0,-1.514028758E-2,-1.724347472E-1,7.277488708E-3
5.501826928E0,1.108361781E-2,-1.588277221E-1,9.456634521E-3
5.517787622E0,-5.812272429E-3,-1.498901844E-1,9.414672852E-3
5.533748315E0,-5.640402436E-3,-1.540249586E-1,4.792881012E-2
5.549770044E0,6.490908563E-3,-1.690014601E-1,7.680892944E-3
5.565791772E0,-1.040668041E-2,-1.678788662E-1,-3.500080109E-2
5.581721948E0,-1.028528064E-2,-1.704114676E-1,1.064682007E-2
5.597713159E0,-1.020258665E-2,-1.574618816E-1,-3.818511963E-3
5.613673852E0,-2.420017123E-2,-1.777937412E-1,-1.680374146E-3
5.629634546E0,-4.706420004E-3,-1.540653110E-1,-4.260063171E-3
5.645595239E0,-7.105335593E-3,-1.695109010E-1,1.002979279E-2
5.661586450E0,-9.255588055E-3,-1.726332903E-1,2.690315247E-2
5.677577661E0,-6.651282310E-3,-1.786113977E-1,-1.579284668E-3
5.693568872E0,-1.126432419E-2,-1.587333083E-1,5.820274353E-3
5.709529565E0,1.011498272E-3,-1.763313413E-1,2.268505096E-2
5.725490259E0,-1.065522432E-2,-1.645335555E-1,-1.272201538E-3
5.741481470E0,1.131414622E-2,-1.733775139E-1,-1.395225525E-3
5.757472680E0,-3.308191895E-3,-1.709264517E-1,4.632949829E-2
5.773402856E0,1.589288563E-2,-1.583409905E-1,-3.907203674E-3
5.789424585E0,1.128544658E-2,-1.811424494E-1,-1.323699951E-2
5.805415796E0,4.175879061E-3,-1.710348725E-1,1.330375671E-2
5.821407007E0,6.703183055E-3,-1.643930674E-1,-3.222560883E-2
5.837367700E0,-1.719296724E-2,-1.700738668E-1,-1.347255707E-2
5.853328393E0,-2.793096006E-3,-1.609901190E-1,2.190303802E-2
5.869319604E0,2.140171826E-3,-1.583121419E-1,2.142524719E-2
5.885310815E0,-1.241939515E-2,-1.651362181E-1,2.591323853E-2
5.901302026E0,-1.465283334E-2,-1.637792587E-1,1.131153107E-2
5.917262720E0,-2.804920077E-4,-1.526313424E-1,-2.210044861E-2
5.933253930E0,-1.003195345E-2,-1.433920264E-1,2.336883545E-2
5.949214624E0,-2.911590040E-3,-1.520331502E-1,6.510734558E-3
5.965205835E0,1.128024608E-2,-1.284025311E-1,1.846313477E-2
5.981166528E0,-9.185150266E-4,-1.377062201E-1,-6.694793701E-4
5.997127221E0,-5.744867027E-3,-1.054769754E-1,-1.718997955E-2
6.013118432E0,-1.018837094E-3,-1.106147766E-1,1.869964600E-2
6.029109643E0,1.533802599E-2,-9.834724665E-2,2.781486511E-2
6.045100854E0,5.411259830E-3,-1.069688201E-1,1.063346863E-3
6.061061548E0,-9.367324412E-3,-1.038525105E-1,1.995086670E-2
6.077052759E0,-1.937909424E-2,-1.049341559E-1,1.493740082E-2
6.093013452E0,-7.742412388E-3,-1.018536091E-1,1.482963562E-2
6.109004663E0,1.100463420E-2,-7.716625929E-2,3.835487366E-2
6.124995874E0,-6.120167673E-3,-8.865427971E-2,1.861572266E-2
6.140987085E0,-2.078222483E-2,-8.019375801E-2,2.048301697E-2
6.156917261E0,-1.897076517E-2,-8.886981010E-2,3.206539154E-2
6.172908471E0,-2.157991379E-2,-6.485295296E-2,2.219676971E-2
6.188899682E0,7.081344724E-3,-7.632589340E-2,2.911281586E-2
6.204890893E0,-2.412366122E-2,-7.668274641E-2,4.854202271E-3
6.220851587E0,1.908514649E-2,-8.392173052E-2,1.398849487E-2
6.236842798E0,7.064245641E-3,-7.517707348E-2,4.073143005E-3
6.252803491E0,-7.458098233E-3,-7.031702995E-2,1.322746277E-2
6.268794702E0,-1.990740001E-2,-6.469756365E-2,2.961826324E-2
6.284785913E0,3.793537617E-3,-5.793696642E-2,1.748466492E-2
6.300777124E0,-5.915388465E-3,-6.721085310E-2,2.454757690E-2
6.316737817E0,8.148401976E-4,-7.382756472E-2,1.486968994E-2
6.332698511E0,1.031841338E-2,-5.916148424E-2,3.843307495E-4
6.348689721E0,3.913938999E-4,-6.709104776E-2,2.079010010E-4
6.364680932E0,-1.179730147E-2,-6.309181452E-2,4.817008972E-3
6.380641626E0,-7.222354412E-3,-5.939173698E-2,1.419734955E-2
6.396632837E0,1.788899302E-3,-2.470976114E-2,4.259586334E-2
6.412593530E0,5.896314979E-3,-4.492342472E-2,8.626937866E-3
6.428584741E0,-1.371952146E-2,-6.742614508E-2,-1.522064209E-3
6.444575952E0,5.002796650E-3,-4.786586761E-2,2.180671692E-2
6.460536645E0,-2.578943968E-3,-4.759818316E-2,2.043724060E-3
6.476527856E0,-7.991060615E-3,-4.941835999E-2,1.104450226E-2
6.492549585E0,-1.093080640E-2,-4.592639208E-2,4.414463043E-2
6.508510278E0,-1.152461767E-2,-3.312012553E-2,3.426265717E-2
6.524440454E0,7.189065218E-3,-4.214546084E-2,5.329132080E-3
6.540431665E0,9.350880980E-3,-2.649998665E-2,2.192211151E-2
6.556392358E0,-4.031807184E-4,-4.107496142E-2,9.712219238E-3
6.572322534E0,-1.284240186E-2,-2.945277095E-2,1.654338837E-2
6.588313745E0,-1.120349765E-2,-3.530809283E-2,8.985519409E-3
6.604304956E0,-4.265829921E-3,-2.236488461E-2,6.200790405E-3
6.620265649E0,2.889767289E-3,-2.448192239E-2,1.536083221E-2
6.636195825E0,-1.418718696E-2,-2.830079198E-2,1.977539062E-2
6.652187036E0,-1.660787314E-2,-3.051880002E-2,9.896278381E-3
6.668178247E0,-9.556919336E-3,-1.678773761E-2,1.206207275E-2
6.684138940E0,-1.701716334E-2,-3.982990980E-2,4.717826843E-3
6.700130151E0,9.128466249E-3,-4.566732049E-2,-2.107620239E-4
6.716121362E0,1.834765077E-3,-3.826305270E-2,-5.186080933E-3
6.732143091E0,-3.227636218E-3,-3.060165048E-2,-5.455017090E-3
6.748103784E0,-1.555223763E-2,-4.817771912E-2,3.253746033E-2
6.764064477E0,3.152623773E-3,-9.138166904E-3,2.980327606E-2
6.779994653E0,-4.411593080E-3,-2.438247204E-2,2.231788635E-2
6.795985864E0,-1.660434902E-2,-3.621795774E-2,2.205657959E-2
6.811977075E0,-2.522632480E-3,-9.399980307E-3,1.942062378E-2
6.827968286E0,4.448607564E-3,-3.535565734E-2,2.396678925E-2
6.843959497E0,-5.668118596E-3,-1.064789295E-2,1.416969299E-2
6.859950708E0,-6.132587790E-3,-6.001472473E-3,-7.543563843E-3
6.875911401E0,-1.376332343E-2,-2.919775248E-2,1.626586914E-2
6.891872095E0,-4.588201642E-3,-2.542197704E-2,4.183769226E-3
6.907893823E0,-2.401729673E-2,-2.739718556E-2,2.558994293E-2
6.923854516E0,-7.292360067E-3,-2.628645301E-2,6.236076355E-3
6.939845727E0,1.933008432E-3,-9.674459696E-3,1.558113098E-2
6.955806421E0,6.206467748E-3,-2.500733733E-2,1.054286957E-2
6.971797632E0,5.829811096E-3,-3.555169702E-2,3.184604645E-2
6.987758325E0,-4.377067089E-3,-2.466300130E-2,2.456665039E-2
7.003749536E0,-2.076044679E-3,-2.719342709E-3,1.979160309E-2
7.019740747E0,-1.429699361E-2,-1.050281525E-2,3.414154053E-2
7.035731958E0,-5.391240120E-5,2.220109105E-2,2.994537354E-3
7.051753686E0,4.690438509E-3,4.609763622E-3,1.972961426E-2
7.067683862E0,-3.692060709E-4,1.611000299E-2,1.972007751E-2
7.083644555E0,-7.779747248E-3,3.603512049E-2,1.016998291E-2
7.099666284E0,-1.259057224E-2,2.716028690E-2,-6.568908691E-3
7.115688012E0,-5.296006799E-3,4.605993629E-2,2.215290070E-2
7.131709741E0,-1.207284629E-2,4.704356194E-2,3.168201447E-2
7.147700952E0,-5.021870136E-3,7.537630200E-2,1.244831085E-2
7.163722680E0,-5.164071918E-3,3.867247701E-2,5.066394806E-2
7.179713891E0,-9.833946824E-3,8.312033117E-2,3.619766235E-2
7.195674585E0,9.369850159E-5,8.266367018E-2,2.892780304E-2
7.211696313E0,-2.611350268E-2,8.864140511E-2,2.164173126E-2
7.227687524E0,9.837791324E-3,7.491703331E-2,3.828430176E-2
7.243678735E0,2.313598990E-3,1.053107530E-1,2.623367310E-2
7.259639428E0,1.182961464E-2,1.038758904E-1,1.661872864E-2
7.275600122E0,7.003620267E-3,1.050856560E-1,1.425743103E-2
7.291560815E0,2.437800169E-3,1.084794998E-1,4.301166534E-2
7.307552026E0,-1.176160574E-2,1.121017337E-1,1.185321808E-2
7.323512720E0,9.897887707E-3,9.817148745E-2,3.328132629E-2
7.339503930E0,7.302030921E-3,1.369751394E-1,1.634693146E-2
7.355464624E0,2.134245634E-2,1.516215503E-1,2.575111389E-2
7.371486352E0,-2.876251936E-3,1.439695656E-1,2.562141418E-2
7.387477563E0,6.543353200E-3,1.494941413E-1,1.594734192E-2
7.403499292E0,-7.888153195E-3,1.437184513E-1,4.220104218E-2
7.419490503E0,-2.993509173E-3,1.383001357E-1,2.058029175E-2
7.435481714E0,-2.843290567E-4,1.727270931E-1,1.090621948E-2
7.451381372E0,9.343385696E-3,1.566173136E-1,1.788330078E-2
7.467372583E0,4.723012447E-3,1.523598284E-1,2.965164185E-2
7.483333276E0,-7.059752941E-3,1.649899781E-1,1.509475708E-2
7.499324487E0,7.531180978E-3,1.709145904E-1,2.928543091E-2
7.515285180E0,-1.126366854E-2,1.420084238E-1,3.392505646E-2
7.531306909E0,1.046389341E-3,1.399953216E-1,1.942729950E-2
7.547298120E0,2.044840157E-2,1.393807977E-1,1.688861847E-2
7.563319848E0,-1.226544380E-2,1.666263640E-1,3.109264374E-2
7.579311059E0,1.034334302E-3,1.570101827E-1,3.574371338E-2
7.595302270E0,6.271481514E-3,1.699341089E-1,2.134990692E-2
7.611232446E0,1.546506584E-2,1.638566405E-1,-4.924774170E-3
7.627223657E0,1.051764190E-2,1.562962830E-1,1.426410675E-2
7.643184350E0,-3.425568342E-3,1.469094604E-1,1.665496826E-2
7.659175561E0,2.415984869E-3,1.555335373E-1,7.048606873E-3
7.675136255E0,-8.204281330E-4,1.633799672E-1,4.605293274E-3
7.691127466E0,2.834305167E-3,1.715446115E-1,1.893043518E-2
7.707088159E0,-8.415952325E-3,1.761703789E-1,1.880550385E-2
7.723048852E0,-2.942562103E-3,1.724887639E-1,3.067588806E-2
7.739040063E0,-9.462773800E-3,1.519076228E-1,-5.474090576E-4
7.755031274E0,-5.967631936E-3,1.534089744E-1,1.372623444E-2
7.771053003E0,-2.793252468E-3,1.508225203E-1,2.801513672E-2
7.787013696E0,5.033299327E-3,1.489281654E-1,2.555751801E-2
7.803004907E0,8.097633719E-3,1.548611671E-1,4.705238342E-2
7.818996118E0,3.797933459E-3,1.293838471E-1,3.742218018E-2
7.834987329E0,-4.920959473E-4,1.352422833E-1,-1.769447327E-2
7.850917505E0,3.034472466E-4,1.261732727E-1,3.795623779E-3
7.866908716E0,-3.851160407E-3,1.369302720E-1,3.247928619E-2
7.882869409E0,-5.681023002E-3,1.268611848E-1,8.500099182E-3
7.898860620E0,2.081796527E-3,1.312937737E-1,-3.506660461E-3
7.914821313E0,5.073845387E-5,1.547400355E-1,-2.508831024E-2
7.930720971E0,2.832531929E-3,1.329863518E-1,2.755546570E-2
7.946712182E0,1.733134687E-2,1.639622748E-1,3.471279144E-2
7.962672876E0,3.104008734E-3,1.374559999E-1,8.352279663E-3
7.978664087E0,7.828846574E-4,1.306867599E-1,2.030467987E-2
7.994624780E0,8.191861212E-3,1.291165948E-1,2.747058868E-2
8.010615991E0,3.363676369E-3,1.490577161E-1,2.266979218E-2
8.026576684E0,1.137688756E-3,1.262667030E-1,4.181003571E-2
8.042537378E0,8.884787560E-3,1.202739626E-1,1.091957092E-3
8.058498071E0,1.411835849E-2,1.196141243E-1,2.741718292E-2
8.074458764E0,-1.368522644E-4,1.311109215E-1,1.302814484E-2
8.090449975E0,1.179852337E-2,1.332822293E-1,2.976799011E-2
8.106410669E0,7.292762399E-3,1.305475533E-1,1.537895203E-2
8.122401880E0,7.136113942E-3,1.280896366E-1,2.733421326E-2
8.138332055E0,1.406697184E-2,1.165156364E-1,2.732372284E-2
8.154353784E0,1.838541776E-2,1.221653223E-1,8.166313171E-3
8.170314477E0,-5.934156477E-3,1.207501739E-1,2.970981598E-2
8.186305688E0,-3.013453633E-2,1.216451526E-1,9.727478027E-4
8.202327417E0,-1.109889150E-2,9.866678715E-2,3.448390961E-2
8.218318628E0,-6.280049682E-3,1.143942177E-1,5.746841431E-3
8.234279321E0,1.313791424E-2,1.159197390E-1,8.132934570E-3
8.250240014E0,-1.322828233E-3,1.267683357E-1,-3.844261169E-3
8.266261743E0,3.682307899E-3,1.066082418E-1,8.118629456E-3
8.282222436E0,8.277162910E-3,1.010583490E-1,1.529884338E-2
8.298213647E0,-8.730083704E-3,1.003685668E-1,1.529788971E-2
8.314204858E0,-6.741970778E-3,1.022029072E-1,1.530075073E-2
8.330104516E0,4.980295897E-3,1.111641973E-1,1.290607452E-2
8.346095727E0,4.708088934E-3,1.129155308E-1,-3.853797913E-3
8.362056421E0,-1.202429831E-2,1.124594212E-1,-3.856658936E-3
8.378047632E0,-1.680660248E-2,1.143538952E-1,3.324508667E-3
8.394038843E0,-7.294185460E-3,9.748220444E-2,1.529502869E-2
8.409969018E0,-1.197717339E-2,9.991052747E-2,8.111000061E-3
8.425960229E0,-7.174834609E-3,9.742192924E-2,1.050472260E-2
8.441920923E0,9.569101036E-3,1.189592481E-1,2.008152008E-2
8.457912134E0,-9.458228946E-3,1.211564764E-1,-1.344013214E-2
8.473903345E0,2.776883543E-3,9.940294921E-2,1.289176941E-2
8.489894555E0,-1.880187541E-2,1.041215211E-1,-1.105022430E-2
8.505885766E0,5.263850093E-3,1.062909067E-1,-3.870964050E-3
8.521846460E0,5.173645914E-3,1.038412303E-1,-6.263732910E-3
8.537837671E0,1.216781139E-2,1.083951294E-1,3.314971924E-3
8.553859399E0,-9.441606700E-3,1.057835892E-1,2.965068817E-2
8.569881128E0,4.691705108E-3,1.220437214E-1,1.528549194E-2
8.585872339E0,-1.460218430E-2,1.070331261E-1,5.707740784E-3
8.601863550E0,-1.907870173E-4,1.231590211E-1,8.097648621E-3
8.617854761E0,-4.777781665E-3,1.034217551E-1,-2.782154083E-2
8.633815454E0,9.369380772E-3,9.135092050E-2,1.288318634E-2
8.649776147E0,-5.132824183E-3,9.386484325E-2,2.006721497E-2
8.665767358E0,4.659891129E-3,1.011376977E-1,8.094787598E-3
8.681789087E0,-5.096912384E-3,1.036887020E-1,3.922176361E-2
8.697749780E0,-2.886265516E-3,9.204606712E-2,2.007293701E-2
8.713710473E0,-7.675908506E-3,1.065752059E-1,3.922653198E-2
8.729671167E0,2.828604728E-2,1.064635515E-1,1.288986206E-2
8.745723413E0,-1.971545815E-2,9.223566949E-2,2.246856689E-2
8.761714624E0,-2.910649776E-2,1.062846631E-1,2.246475220E-2
8.777705835E0,-1.238051057E-2,9.900969267E-2,2.964687347E-2
8.793697046E0,-7.671497762E-3,1.107561588E-1,4.161834717E-2
8.809688257E0,4.139229655E-3,1.056468263E-1,5.705833435E-3
8.825648950E0,1.723125577E-3,8.642600477E-2,2.725315094E-2
8.841609643E0,-5.377203226E-3,9.588986635E-2,1.528072357E-2
8.857600854E0,-1.257497817E-2,1.077866852E-1,1.527976990E-2
8.873561548E0,-1.244476438E-2,7.920901477E-2,1.527976990E-2
8.889491723E0,-2.820983529E-3,8.689250052E-2,2.485752106E-2
8.905513452E0,-7.497645915E-3,9.471961856E-2,3.683185577E-2
8.921535180E0,-1.701636612E-2,9.766060114E-2,2.486228943E-2
8.937526391E0,-1.063942909E-4,9.574873745E-2,-3.868103027E-3
8.953517602E0,-2.531699836E-3,1.150378287E-1,-1.473426819E-3
8.969508813E0,-5.048610270E-3,1.174580529E-1,-1.344203949E-2
8.985469507E0,-1.246985793E-2,1.124114692E-1,9.250640869E-4
9.001460718E0,-5.374401808E-4,1.071719080E-1,2.007675171E-2
9.017421411E0,-1.509775221E-2,9.735846519E-2,2.965545654E-2
9.033382104E0,-1.021536440E-2,1.115709320E-1,3.683567047E-2
9.049312280E0,-7.803134620E-3,1.041706651E-1,3.922843933E-2
9.065303491E0,-7.260143757E-4,1.114658564E-1,8.106231689E-3
9.081264184E0,8.408397436E-3,8.312771469E-2,-2.061748505E-2
9.097255395E0,-3.702163696E-3,1.004563272E-1,3.684902191E-2
9.113216089E0,5.826279521E-3,1.080211848E-1,-6.245613098E-3
9.129207300E0,-8.853115141E-3,1.061011627E-1,9.441375732E-4
9.145137475E0,7.021874189E-4,7.318545878E-2,4.403114319E-2
9.161128686E0,2.757936716E-3,8.582334965E-2,2.248001099E-2
9.177119897E0,5.163654685E-3,8.656467497E-2,3.923034668E-2
9.193080591E0,-9.360231459E-3,9.485478699E-2,3.683280945E-2
9.209041284E0,-1.171099395E-2,9.389468282E-2,2.006816864E-2
9.225032495E0,7.422268391E-5,1.012848169E-1,1.048469543E-2
9.240993188E0,9.495720267E-3,9.083230793E-2,1.047325134E-2
9.256923364E0,-7.608577609E-3,8.564960957E-2,3.919696808E-2
9.272945093E0,1.872003078E-3,7.606311142E-2,2.003669739E-2
9.288905786E0,1.120670140E-2,6.992045790E-2,1.764202118E-2
9.304958032E0,-1.305326819E-3,6.971549243E-2,2.243709564E-2
9.320918725E0,5.179181695E-3,6.739892066E-2,1.526260376E-2
9.336909936E0,-5.045458674E-3,5.094305053E-2,5.696296692E-3
9.352870630E0,1.537904143E-3,6.619973481E-2,1.767730713E-2
9.368770288E0,3.252327442E-3,7.213120162E-2,3.684425354E-2
9.384792016E0,-9.475558996E-3,7.766550779E-2,8.126258850E-3
9.400752710E0,-9.712979198E-3,5.396199226E-2,4.404354095E-2
9.416743921E0,-3.953710198E-3,6.289902329E-2,4.885768890E-2
9.432735132E0,-3.236576915E-3,6.948165596E-2,2.734947205E-2
9.448756860E0,-1.912833005E-2,4.729468003E-2,1.303482056E-2
9.464717553E0,-1.516488194E-2,4.620237276E-2,-1.288414001E-3
9.480678247E0,1.020208001E-3,4.577318951E-2,2.747535706E-2
9.496608423E0,-1.145040989E-2,7.289084047E-2,3.229045868E-2
9.512599634E0,-9.809270501E-3,3.406975418E-2,3.232765198E-2
9.528590845E0,3.997206688E-3,4.740796238E-2,3.477287292E-2
9.544582055E0,1.316323876E-2,4.466762021E-2,1.328277588E-2
9.560573266E0,-1.544624567E-3,2.647244930E-2,-1.058578491E-2
9.576533960E0,-1.620443165E-2,2.850984037E-2,3.257656097E-2
9.592525171E0,-6.638899446E-3,5.224254727E-2,1.586246490E-2
9.608424829E0,5.251377821E-3,2.508900315E-2,1.111507416E-2
9.624416040E0,1.478481293E-2,2.967600524E-2,1.834774017E-2
9.640376733E0,-1.150682569E-2,2.508683503E-2,2.558422089E-2
9.656398462E0,5.663171411E-3,2.554183453E-2,2.324485779E-2
9.672359155E0,1.793986559E-2,3.444022685E-2,8.925437927E-3
9.688380884E0,-8.164033294E-3,2.478609979E-2,8.951187134E-3
9.704372095E0,1.790939271E-2,2.516302466E-2,1.853656769E-2
9.720393823E0,-1.140443981E-2,3.729330003E-2,4.967117310E-2
9.736385034E0,-1.389832795E-2,5.014434457E-2,4.971408844E-2
9.752376245E0,2.999424934E-3,4.522986710E-2,2.346992493E-2
9.768367456E0,-6.186217070E-3,5.025024712E-2,2.839183807E-2
9.784358667E0,-1.211285591E-3,3.759672493E-2,4.531955719E-2
9.800319360E0,8.658245206E-3,1.861761510E-2,1.678466797E-2
9.816280053E0,-7.766872644E-3,9.427130222E-3,2.384185791E-4
9.832271264E0,6.816476583E-3,2.081422508E-2,1.002788544E-2
9.848262475E0,1.990064979E-3,4.229202867E-3,3.040313721E-3
9.864253686E0,-5.152523518E-4,1.244655252E-2,1.757812500E-2
9.880275415E0,1.150986552E-2,7.575035095E-3,1.054954529E-2
9.896266626E0,-1.470963657E-2,2.032068372E-2,4.897880554E-2
9.912257837E0,-1.224674284E-2,1.174040139E-2,1.225471497E-3
9.928249048E0,1.157756150E-2,2.098539472E-2,2.772426605E-2
9.944240259E0,-5.192756653E-3,1.508565247E-2,4.708480835E-2
9.960200952E0,2.247124910E-3,2.424784005E-2,2.343082428E-2
9.976131128E0,-1.872974634E-2,2.552351356E-2,1.413440704E-2
9.992122339E0,-1.320062578E-2,1.243075728E-2,2.872085571E-2
1.000814407E1,1.564978063E-2,1.052138209E-2,3.126239777E-2
1.002413528E1,5.844861269E-3,4.472285509E-3,3.136634827E-2
1.004012649E1,-1.589313149E-3,1.317164302E-2,4.106044769E-2
1.005608718E1,-6.460443139E-3,1.086059213E-2,2.205181122E-2
1.007204788E1,-4.285722971E-3,1.932406425E-2,4.139041901E-2
1.008797805E1,-1.665666699E-3,1.175400615E-2,5.124568939E-2
1.010396926E1,1.313504577E-2,4.137486219E-3,1.329994202E-2
1.011992996E1,-1.028954983E-2,-1.177802682E-2,1.371669769E-2
1.013592117E1,-1.262387633E-2,2.155879140E-2,1.890945435E-2
1.015188186E1,-8.030280471E-3,7.593452930E-3,2.644824982E-2
1.016778152E1,-3.199504316E-2,1.799464226E-3,2.676010132E-2
1.018377273E1,3.952652216E-3,2.364352345E-2,2.225017548E-2
1.019973342E1,-6.455630064E-4,1.498016715E-2,2.725124359E-2
1.021569412E1,-9.934559464E-3,1.461520791E-2,3.699398041E-2
1.023165481E1,-7.530495524E-3,2.204394341E-2,4.409408569E-2
1.024767654E1,-9.695842862E-3,4.000067711E-4,2.493286133E-2
1.026366775E1,-2.483323216E-3,-6.860792637E-3,5.375289917E-2
1.027965896E1,5.210518837E-3,-3.149613738E-2,1.559829712E-2
1.029558914E1,-1.079383492E-2,-3.361129761E-2,3.720283508E-3
1.031161086E1,-9.473413229E-4,-3.644269705E-2,-5.876541138E-3
1.032763259E1,-7.497102022E-3,-3.930708766E-2,2.512645721E-2
1.034359329E1,2.521157265E-3,-3.165960312E-2,2.016544342E-2
1.035955398E1,-1.871227473E-2,-4.407474399E-2,3.441715240E-2
1.037554519E1,-8.742436767E-3,-3.590029478E-2,1.529598236E-2
1.039150588E1,-5.812168121E-3,-6.873521209E-2,4.174327850E-2
1.040752761E1,-1.703666896E-2,-7.821798325E-2,2.507019043E-2
1.042351882E1,-7.052391768E-3,-7.905226946E-2,3.949069977E-2
1.043951003E1,-1.160813868E-2,-9.061819315E-2,2.992725372E-2
1.045550124E1,1.505178213E-2,-7.965758443E-2,4.673576355E-2
1.047146194E1,-1.808706671E-2,-9.686404467E-2,6.105422974E-3
1.048742263E1,-2.225680649E-2,-9.737855196E-2,8.565902710E-3
1.050344436E1,-2.332180738E-4,-1.033674479E-1,2.057933807E-2
1.051943557E1,-6.854847074E-3,-9.622436762E-2,1.348304749E-2
1.053542678E1,-3.849223256E-3,-1.177265346E-1,1.606369019E-2
1.055141799E1,1.551087201E-2,-7.905799150E-2,9.088516235E-3
1.056740920E1,-1.086110622E-2,-1.141183674E-1,2.598285675E-2
1.058336990E1,8.412271738E-3,-1.209845543E-1,2.369880676E-2
1.059933059E1,-3.323405981E-3,-1.083814800E-1,2.382183075E-2
1.061532180E1,6.650656462E-3,-1.285561025E-1,3.355312347E-2
1.063128250E1,-1.204151660E-2,-1.171629131E-1,3.851413727E-2
1.064727371E1,2.842262387E-3,-1.435480416E-1,6.744194031E-2
1.066326492E1,-4.149049520E-3,-1.318815053E-1,4.140377045E-2
1.067922561E1,-1.815181971E-2,-1.295113266E-1,1.059055328E-2
1.069521682E1,1.270785928E-3,-1.439495385E-1,3.245639801E-2
1.071117751E1,6.631627679E-3,-1.349759102E-1,1.625061035E-3
1.072719924E1,2.277478576E-3,-1.548399031E-1,1.138591766E-2
1.074315994E1,-1.187559962E-2,-1.432571709E-1,1.626396179E-2
1.075915115E1,-7.086142898E-3,-1.416512132E-1,4.267597198E-2
1.077514236E1,-1.191449165E-2,-1.429007351E-1,4.535675049E-3
1.079110305E1,4.967533052E-3,-1.405667067E-1,3.827857971E-2
1.080706374E1,1.019618660E-2,-1.364654005E-1,2.182483673E-2
1.082305496E1,8.415177464E-3,-1.676668823E-1,1.019287109E-2
1.083907668E1,1.593551785E-2,-1.971005797E-1,2.008533478E-2
1.085506790E1,8.692666888E-3,-1.618650556E-1,4.195976257E-2
1.087105911E1,1.124540716E-2,-1.615502834E-1,4.209518433E-2
1.088705032E1,6.453208625E-3,-1.568683982E-1,4.472827911E-2
1.090304153E1,8.908957243E-3,-1.966008544E-1,-9.918212891E-3
1.091900222E1,2.123519778E-2,-1.698558331E-1,-2.342224121E-3
1.093496292E1,7.243447006E-3,-1.651045680E-1,1.932621002E-2
1.095095413E1,1.943045110E-2,-1.682200432E-1,7.312774658E-3
1.096694534E1,7.647730410E-3,-1.666131020E-1,1.684761047E-2
1.098293655E1,2.913683653E-3,-1.588674784E-1,3.124237061E-2
1.099895828E1,-1.139848679E-2,-1.661775112E-1,1.460170746E-2
1.101491897E1,-4.027813673E-3,-1.590762734E-1,2.682209015E-2
1.103091018E1,1.768237352E-2,-1.617168784E-1,2.240657806E-2
1.104684036E1,1.034489274E-2,-1.465441585E-1,2.750301361E-2
1.106286208E1,1.020347327E-2,-1.417376995E-1,4.213523865E-2
1.107882278E1,1.002362370E-2,-1.572552323E-1,3.768539429E-2
1.109481399E1,2.357669175E-3,-1.629427075E-1,6.919860840E-3
1.111077468E1,-2.372309566E-3,-1.617488861E-1,7.820129395E-5
1.112676589E1,7.036238909E-3,-1.497184634E-1,2.895259857E-2
1.114272659E1,-9.727463126E-3,-1.380749941E-1,2.626419067E-2
1.115871780E1,4.444420338E-3,-1.497779489E-1,6.431770325E-2
1.117470901E1,4.451334476E-3,-1.311125755E-1,4.513645172E-2
1.119066970E1,7.199406624E-3,-1.706904769E-1,2.617740631E-2
1.120669143E1,-2.273045480E-3,-1.440703869E-1,4.918098450E-3
1.122268264E1,-2.243921161E-3,-1.526085138E-1,2.721786499E-3
1.123867385E1,-4.472598433E-3,-1.582496166E-1,1.703548431E-2
1.125463455E1,5.444437265E-3,-1.443318129E-1,2.365112305E-3
1.127059524E1,-1.341816038E-2,-1.297996044E-1,3.787708282E-2
1.128655593E1,3.659963608E-3,-1.460239887E-1,4.481601715E-2
1.130254714E1,1.574117690E-2,-1.609405875E-1,3.773593903E-2
1.131853835E1,6.231583655E-3,-1.653559804E-1,1.169013977E-2
1.133449905E1,4.002019763E-3,-1.710898280E-1,3.106021881E-2
1.135052078E1,1.378268003E-3,-1.784653664E-1,9.503364563E-3
1.136651199E1,1.315143704E-2,-1.586926579E-1,-2.701759338E-3
1.138250320E1,-1.362167299E-3,-1.340709925E-1,5.678939819E-2
1.139843337E1,1.281857491E-2,-1.420135498E-1,5.169391632E-2
1.141439407E1,-1.152529567E-2,-1.416902542E-1,3.243064880E-2
1.143041580E1,1.446918398E-2,-1.380497813E-1,2.771568298E-2
1.144643752E1,7.237166166E-3,-1.160581708E-1,2.069091797E-2
1.146242874E1,4.710130394E-3,-1.354217529E-1,-5.522727966E-3
1.147841995E1,-5.027964711E-3,-1.257156134E-1,2.800655365E-2
1.149438064E1,-5.287155509E-3,-1.271885037E-1,1.595592499E-2
1.151037185E1,1.576930285E-3,-1.508980393E-1,3.868103027E-3
1.152630203E1,-3.415122628E-3,-1.463443637E-1,3.485012054E-2
1.154229324E1,1.115399599E-2,-1.461496353E-1,4.430294037E-2
1.155825393E1,-1.020245254E-3,-1.440937519E-1,2.060985565E-2
1.157424514E1,-1.493968070E-3,-1.397592425E-1,4.001045227E-2
1.159020584E1,-1.976214349E-3,-1.407988667E-1,3.304481506E-2
1.160619705E1,-2.022109926E-3,-1.470292807E-1,6.896972656E-3
1.162218826E1,2.522423863E-3,-1.504819393E-1,3.331279755E-2
1.163814895E1,-1.192835718E-2,-1.209740639E-1,1.167392731E-2
1.165414016E1,-7.275588810E-3,-1.497081518E-1,2.590560913E-2
1.167007034E1,2.557627857E-3,-1.394755840E-1,6.424713135E-2
1.168609206E1,1.213444024E-2,-1.298987865E-1,4.988193512E-2
1.170205276E1,9.591467679E-3,-1.265099049E-1,6.979942322E-3
1.171804397E1,-9.720653296E-3,-1.275038719E-1,2.395725250E-2
1.173400466E1,4.424877465E-3,-1.434928775E-1,3.611278534E-2
1.174996536E1,4.454918206E-3,-1.519535780E-1,2.420520782E-2
1.176592605E1,9.023413062E-3,-1.611048579E-1,-2.242088318E-3
1.178194778E1,-5.418092012E-3,-1.463128924E-1,3.581714630E-2
1.179790847E1,-5.360454321E-3,-1.342455149E-1,2.597427368E-2
1.181389968E1,-7.911942899E-3,-1.440224648E-1,5.216598511E-2
1.182989089E1,-3.074169159E-3,-1.382970214E-1,1.151657104E-2
1.184591262E1,1.150868833E-2,-1.541127563E-1,4.519462585E-3
1.186187332E1,2.013377845E-3,-1.457785368E-1,2.626800537E-2
1.187783401E1,-1.267614216E-2,-1.634328961E-1,2.156925201E-2
1.189376418E1,-1.994006336E-2,-1.312599778E-1,-7.236480713E-3
1.190975540E1,-1.045594364E-2,-1.318837404E-1,4.047679901E-2
1.192577712E1,6.039544940E-3,-1.613550186E-1,4.030227661E-2
1.194176834E1,1.008436084E-3,-1.434959173E-1,3.065586090E-2
1.195772903E1,-1.398742199E-3,-1.409221292E-1,1.390647888E-2
1.197368972E1,-3.666147590E-3,-1.379972696E-1,-7.341384888E-3
1.198968093E1,-1.341102272E-2,-1.308444142E-1,3.336048126E-2
1.200567214E1,-1.331528276E-2,-1.311777234E-1,9.533882141E-3
1.202163284E1,-6.439790130E-3,-9.930336475E-2,4.788875580E-2
1.203759353E1,-1.423135400E-3,-1.130349040E-1,2.890586853E-2
1.205358474E1,7.976740599E-3,-1.411762834E-1,3.147315979E-2
1.206954543E1,-6.281599402E-3,-1.332525015E-1,1.968288422E-2
1.208544509E1,-3.906726837E-3,-1.321926713E-1,3.171539307E-2
1.210149734E1,-6.275713444E-3,-1.190133095E-1,1.967620850E-2
1.211751907E1,5.739733577E-3,-1.041773558E-1,3.153419495E-2
1.213351028E1,9.720027447E-4,-1.436638832E-1,1.949501038E-2
1.214947097E1,-1.821175218E-2,-1.322019696E-1,3.622531891E-2
1.216543167E1,1.523204148E-2,-1.342335939E-1,2.202033997E-2
1.218148391E1,-8.652530611E-3,-1.137371063E-1,2.688598633E-2
1.219744460E1,-1.584070921E-2,-1.088042855E-1,3.900527954E-2
1.221343582E1,-1.104856282E-2,-1.070507765E-1,1.770019531E-2
1.222939651E1,-6.133779883E-3,-1.210486293E-1,1.546573639E-2
1.224532668E1,-3.891915083E-3,-1.038231254E-1,4.647922516E-2
1.226134841E1,1.017659903E-2,-1.156163216E-1,2.466583252E-2
1.227730911E1,4.998624325E-3,-1.127572060E-1,1.723575592E-2
1.229330032E1,-4.836797714E-3,-1.111412048E-1,1.466178894E-2
1.230926101E1,-4.721477628E-3,-1.276658773E-1,1.227951050E-2
1.232525222E1,5.045428872E-3,-1.225889921E-1,1.468753815E-2
1.234124343E1,-4.571512341E-3,-1.252059937E-1,5.298328400E-2
1.235720413E1,9.302794933E-5,-1.226605773E-1,1.229190826E-2
1.237316482E1,1.451739669E-2,-1.058407426E-1,4.341983795E-2
1.238915603E1,1.140385866E-4,-1.157221198E-1,2.917575836E-2
1.240517776E1,4.766881466E-5,-1.181567907E-1,4.381752014E-2
1.242116897E1,-2.150735259E-2,-1.116136909E-1,2.955532074E-2
1.243716018E1,-2.290219069E-3,-1.032285094E-1,3.455352783E-2
1.245312087E1,-6.926670671E-3,-9.863883257E-2,2.510547638E-2
1.246914260E1,-2.110342681E-2,-9.652990103E-2,3.001594543E-2
1.248510330E1,-2.086098492E-2,-7.577174902E-2,2.771377563E-2
1.250112502E1,-1.759305596E-3,-8.403766155E-2,4.455184937E-2
1.251711624E1,-1.105151325E-2,-8.591413498E-2,3.514575958E-2
1.253310745E1,1.292851567E-2,-8.424139023E-2,3.299522400E-2
1.254909866E1,8.315742016E-3,-9.271275997E-2,1.165676117E-2
1.256502883E1,-5.854785442E-3,-8.143872023E-2,2.372932434E-2
1.258105056E1,1.301363111E-3,-8.205056190E-2,2.369213104E-2
1.259701126E1,-5.781367421E-3,-7.712823153E-2,4.031276703E-2
1.261300247E1,-3.211587667E-3,-7.422220707E-2,4.259014130E-2
1.262899368E1,1.608923078E-2,-5.052888393E-2,-2.916336060E-3
1.264492385E1,4.046261311E-3,-7.354635000E-2,4.981327057E-2
1.266091506E1,-1.048221439E-2,-6.901782751E-2,2.839756012E-2
1.267687576E1,1.400619745E-3,-5.243945122E-2,4.050445557E-2
1.269286697E1,-5.569994450E-3,-4.955393076E-2,4.067802429E-2
1.270882766E1,-7.903255522E-3,-5.807065964E-2,4.975318909E-3
1.272478835E1,-2.190085500E-2,-6.497508287E-2,5.062675476E-2
1.274081008E1,-5.144208670E-3,-6.817996502E-2,3.396415710E-2
1.275680129E1,-2.270191908E-4,-4.825973511E-2,2.922153473E-2
1.277276199E1,-4.170089960E-5,-6.236046553E-2,2.205371857E-2
1.278872268E1,-1.438879222E-2,-5.618542433E-2,4.832744598E-2
1.280468337E1,-2.193905413E-3,-6.347793341E-2,1.958656311E-2
1.282067458E1,-1.174652576E-2,-3.570628166E-2,2.925205231E-2
1.283666580E1,-2.030812204E-3,-4.547530413E-2,2.938747406E-2
1.285265701E1,-1.409081370E-2,-5.596071482E-2,3.187656403E-2
1.286861770E1,2.033412457E-4,-5.210036039E-2,3.915023804E-2
1.288457839E1,2.618454397E-3,-4.812651873E-2,2.488517761E-2
1.290056960E1,-4.486210644E-3,-4.713755846E-2,2.255249023E-2
1.291656082E1,-1.151076704E-2,-4.119658470E-2,2.980518341E-2
1.293255203E1,1.029630005E-2,-3.976905346E-2,4.665184021E-2
1.294854324E1,-1.596252620E-2,-4.793167114E-2,4.434585571E-2
1.296447341E1,-3.928460181E-3,-3.442984819E-2,3.247165680E-2
1.298052566E1,3.312706947E-3,-5.244576931E-2,3.733158112E-2
1.299648635E1,-6.088107824E-3,-3.548020124E-2,1.339912415E-2
1.301247756E1,-3.603525460E-3,-3.818035126E-2,3.492736816E-2
1.302843826E1,1.233406365E-3,-4.666757584E-2,4.920864105E-2
1.304439895E1,-5.833193660E-3,-3.216415644E-2,5.385208130E-2
1.306042068E1,8.494660258E-3,-1.799565554E-2,3.453540802E-2
1.307641189E1,-5.904242396E-3,-2.884924412E-2,6.558132172E-2
1.309240310E1,2.006772161E-2,-2.616947889E-2,2.250766754E-2
1.310839431E1,-3.862664104E-3,-4.497575760E-2,2.731800079E-2
1.312429397E1,-8.698634803E-3,-4.489523172E-2,3.196144104E-2
1.314028518E1,5.702070892E-3,-3.902721405E-2,2.439689636E-2
1.315627639E1,1.280979812E-2,-3.153568506E-2,3.340530396E-2
1.317226760E1,3.155291080E-3,-4.028981924E-2,2.794265747E-2
1.318822830E1,-6.503649056E-3,-2.976679802E-2,5.601882935E-2
1.320418899E1,7.209852338E-4,-6.576001644E-3,5.794906616E-2
1.322021072E1,-4.001393914E-3,-2.751845121E-2,2.897644043E-2
1.323617141E1,-4.117280245E-3,-3.154879808E-2,2.874660492E-2
1.325216262E1,-6.682313979E-3,-2.443724871E-2,4.256629944E-2
1.326812332E1,-9.255290031E-3,-2.809840441E-2,1.363277435E-2
1.328411453E1,-2.251632512E-3,-3.103393316E-2,3.475475311E-2
1.330007522E1,4.759609699E-3,-2.841550112E-2,3.664207458E-2
1.331603591E1,2.178162336E-3,-2.442634106E-2,3.356742859E-2
1.333202712E1,4.317775369E-3,-1.278921962E-2,1.352977753E-2
1.334804885E1,-1.297693700E-2,-2.573487163E-2,3.168487549E-2
1.336407058E1,-4.020348191E-3,-1.910266280E-2,4.511260986E-2
1.338003127E1,-2.030536532E-3,7.903933525E-3,5.155944824E-2
1.339602249E1,-2.244815230E-3,-9.824752808E-3,4.140758514E-2
1.341195266E1,7.276400924E-3,-1.069980860E-2,2.898311615E-2
1.342791335E1,4.625141621E-3,-3.956198692E-3,3.095626831E-2
1.344393508E1,-5.252212286E-4,-5.052447319E-3,6.577491760E-3
1.345989578E1,-1.048963517E-2,-2.358040214E-2,5.161666870E-2
1.347585647E1,-2.063457668E-2,1.635637879E-2,4.873466492E-2
1.349181716E1,1.008062065E-2,4.787147045E-3,4.351425171E-2
1.350780837E1,-6.779685616E-3,-3.432273865E-3,3.124237061E-2
1.352383010E1,7.568210363E-3,2.226829529E-4,2.384757996E-2
1.353979080E1,-1.888145506E-2,-9.746551514E-4,-3.061294556E-4
1.355575149E1,-1.187559217E-2,5.307525396E-3,4.969501495E-2
1.357174270E1,-1.472368091E-2,-6.907552481E-3,3.979206085E-2
1.358773391E1,8.890196681E-3,3.810912371E-3,2.986621857E-2
1.360375564E1,-1.056875288E-2,-3.923386335E-3,4.391479492E-2
1.361974685E1,-1.305209845E-2,-2.835860848E-2,3.170967102E-2
1.363570754E1,-1.055777073E-3,-3.148019314E-4,2.196788788E-2
1.365169876E1,-8.428573608E-3,-9.505450726E-3,2.662849426E-2
1.366772048E1,-1.339332014E-2,9.054273367E-3,3.605175018E-2
1.368374221E1,-8.747383952E-3,9.582996368E-3,3.586483002E-2
1.369973342E1,-1.154337823E-2,8.223891258E-3,-2.803802490E-4
1.371569412E1,-1.440172642E-2,1.516950130E-2,3.777122498E-2
1.373165481E1,-3.644824028E-4,1.607729495E-2,3.515911102E-2
1.374761550E1,-1.020622253E-2,-7.412537932E-3,5.414772034E-2
1.376363723E1,1.362438500E-2,-5.745857954E-3,4.443836212E-2
1.377962844E1,-1.525924355E-2,-6.347745657E-4,2.278614044E-2
1.379561965E1,-6.071537733E-3,-5.334272981E-3,2.507495880E-2
1.381154983E1,3.649443388E-4,-2.360801399E-2,-3.788948059E-3
1.382754104E1,-1.899664849E-2,-5.494341254E-3,1.758003235E-2
1.384356277E1,-9.991064668E-3,1.639668643E-2,1.973724365E-2
1.385952346E1,1.821355522E-2,-5.174651742E-3,1.227760315E-2
1.387548416E1,-8.766174316E-3,9.754210711E-3,4.551124573E-2
1.389147537E1,2.283468843E-3,1.263466477E-2,5.486869812E-2
1.390743606E1,1.598772407E-2,2.963026613E-2,3.558063507E-2
1.392345779E1,3.640532494E-3,1.573754847E-2,5.946350098E-2
1.393941848E1,3.695011139E-3,5.053266883E-3,5.465888977E-2
1.395537918E1,-3.386601806E-3,1.348273456E-2,4.027557373E-2
1.397130935E1,3.558188677E-3,4.455089569E-3,1.388359070E-2
1.398727004E1,5.431517959E-3,2.482516319E-2,1.856708527E-2
1.400326126E1,-7.015898824E-3,2.860054374E-3,2.084159851E-2
1.401925247E1,-1.020577550E-2,9.222939610E-3,3.031063080E-2
1.403527419E1,-1.235887408E-3,1.402363181E-3,3.739547729E-2
1.405126540E1,-1.361620426E-2,1.731151342E-2,2.533245087E-2
1.406725662E1,-1.365299523E-2,-1.943923533E-3,3.961753845E-2
1.408318679E1,6.894916296E-4,4.302263260E-3,5.152893066E-2
1.409920852E1,-1.122947037E-2,2.180924639E-2,6.345462799E-2
1.411519973E1,5.596920848E-3,1.188978553E-2,4.666423798E-2
1.413119094E1,3.155812621E-3,3.224797547E-2,2.988433838E-2
1.414715164E1,-4.123076797E-3,1.524731144E-2,1.790142059E-2
1.416311233E1,-9.007379413E-3,7.063928992E-3,3.464412689E-2
1.417910354E1,5.309671164E-3,-6.911590695E-3,2.025985718E-2
1.419512527E1,1.024304330E-2,1.349199563E-3,2.980899811E-2
1.421108596E1,-1.106020808E-2,3.720043227E-3,2.978038788E-2
1.422704666E1,-3.438562155E-3,2.425684035E-2,3.454113007E-2
1.424300735E1,-5.587428808E-3,3.104173020E-2,2.015876770E-2
1.425902908E1,-1.977255940E-2,2.144786343E-2,2.733325958E-2
1.427505081E1,-5.263268948E-3,1.900233701E-2,3.451156616E-2
1.429104202E1,-9.860441089E-3,1.771209389E-2,4.647827148E-2
1.430700271E1,-9.573101997E-3,2.628246322E-2,2.971458435E-2
1.432296340E1,-4.641652107E-3,-1.968664117E-3,2.013492584E-2
1.433901565E1,-9.094461799E-3,1.248662360E-2,4.407215118E-2
1.435497634E1,-1.325912774E-2,1.913597062E-2,3.448677063E-2
1.437096755E1,-5.360901356E-3,1.833490655E-2,2.729606628E-2
1.438695876E1,-1.158559322E-2,1.967365667E-2,5.736351013E-3
1.440294998E1,-1.745093614E-2,3.236790374E-2,2.486801147E-2
1.441894119E1,-2.663210034E-3,2.779882587E-2,3.922748566E-2
1.443493240E1,-2.459883690E-4,3.600877896E-2,4.880523682E-2
1.445089309E1,-1.718238741E-2,3.911458701E-2,3.923797607E-2
1.446691482E1,-3.137707710E-3,3.792648017E-2,4.165077209E-2
1.448284500E1,-1.976809651E-2,4.543334246E-2,2.969741821E-2
1.449886672E1,-5.183130503E-3,6.625024229E-2,4.168701172E-2
1.451482742E1,-7.045730948E-3,6.349544972E-2,4.169654846E-2
1.453081863E1,1.048311591E-3,7.146209478E-2,3.930187225E-2
1.454680984E1,-9.975865483E-3,9.071596712E-2,2.972412109E-2
1.456270950E1,-6.704449654E-3,7.128277421E-2,2.254009247E-2
1.457870071E1,1.225322485E-3,1.020379663E-1,5.605888367E-2
1.459466140E1,-1.016525924E-2,9.233760834E-2,4.409122467E-2
1.461065261E1,1.171201468E-2,1.044062376E-1,3.931236267E-2
1.462658279E1,2.572849393E-3,1.043463498E-1,2.016639709E-2
1.464254348E1,7.104873657E-4,9.849670529E-2,3.213882446E-2
1.465859573E1,-1.769901812E-2,1.041885763E-1,1.776885986E-2
1.467455642E1,-7.698491216E-3,9.986067563E-2,3.691959381E-2
1.469054763E1,-7.097005844E-3,1.100692004E-1,5.790710449E-3
1.470650833E1,-1.863762736E-2,1.178344786E-1,2.973079681E-2
1.472243850E1,-2.038142085E-2,1.204053313E-1,3.929996490E-2
1.473849075E1,9.178347886E-3,1.104890853E-1,3.689384460E-2
1.475448196E1,4.869133234E-3,1.125466973E-1,1.773166656E-2
1.477047317E1,-6.350606680E-3,1.141890362E-1,3.447723389E-2
1.478643386E1,1.308113337E-3,1.251648515E-1,2.967643738E-2
1.480239456E1,-5.906365812E-3,1.346110702E-1,2.728271484E-2
1.481838577E1,-3.822036088E-3,1.131593511E-1,2.010345459E-2
1.483437698E1,5.357727408E-3,1.205197126E-1,3.687000275E-2
1.485033767E1,-4.218593240E-3,1.130609214E-1,2.010822296E-2
1.486632888E1,7.668659091E-4,1.344043165E-1,2.489280701E-2
1.488232009E1,8.189871907E-3,1.006781533E-1,2.009963989E-2
1.489828079E1,1.333189756E-2,1.126945615E-1,2.727890015E-2
1.491424148E1,-5.795024335E-3,1.271198392E-1,1.291370392E-2
1.493023269E1,-1.033090055E-3,1.151164472E-1,1.291370392E-2
1.494619338E1,8.389189839E-3,1.177836806E-1,2.967643738E-2
1.496209304E1,-5.932807922E-3,1.373830885E-1,3.446769714E-2
1.497811477E1,3.871068358E-3,1.278162748E-1,9.460449219E-4
1.499410598E1,-1.019348204E-2,1.158155948E-1,1.291275024E-2
1.501009719E1,-7.541947067E-3,1.016767025E-1,3.924751282E-2
1.502608840E1,-4.709005356E-3,1.351796687E-1,4.402923584E-2
1.504201858E1,2.543576062E-3,1.280172914E-1,2.008628845E-2
1.505807083E1,-4.232399166E-3,1.181619912E-1,5.715370178E-3
1.507406204E1,6.082057953E-4,1.275728643E-1,2.726173401E-2
1.509005325E1,5.700588226E-3,1.271504164E-1,3.922653198E-2
1.510601394E1,3.299489617E-3,1.198803037E-1,1.289081573E-2
1.512197463E1,-1.327310503E-2,1.318524331E-1,1.767539978E-2
1.513802688E1,1.062858850E-2,1.245139241E-1,2.246379852E-2
1.515398757E1,-2.010382712E-2,1.243677139E-1,2.006340027E-2
1.516997878E1,8.757509291E-3,1.452611685E-1,3.681850433E-2
1.518597000E1,-5.443550646E-3,1.280391216E-1,3.202438354E-2
1.520186965E1,-5.211159587E-3,1.299331933E-1,2.004814148E-2
1.521789138E1,-7.282912731E-3,1.221161932E-1,3.919410706E-2
1.523385208E1,-2.251446247E-3,1.145881489E-1,3.440093994E-2
1.524984329E1,5.034685135E-3,1.193335205E-1,2.961063385E-2
1.526580398E1,-6.914719939E-3,1.290318370E-1,2.242946625E-2
1.528176467E1,1.458536088E-2,1.245123893E-1,2.961349487E-2
1.529781692E1,7.367625833E-3,1.174815595E-1,3.440284729E-2
1.531377761E1,7.171928883E-5,1.081142724E-1,3.919410706E-2
1.532976882E1,9.481228888E-3,1.297057271E-1,2.722549438E-2
1.534576003E1,-4.975900054E-3,1.270692050E-1,2.722549438E-2
1.536165969E1,-9.751319885E-5,1.176558360E-1,2.961921692E-2
1.537765090E1,-2.546206117E-3,1.248609573E-1,4.877281189E-2
1.539361160E1,2.433754504E-3,1.344107240E-1,2.482891083E-2
1.540960281E1,2.654939890E-4,1.294833571E-1,2.961349487E-2
1.542559402E1,5.186870694E-4,1.362731457E-1,3.439712524E-2
1.544152419E1,7.770851254E-3,1.238024309E-1,2.242279053E-2
1.545754592E1,-6.550244987E-3,1.349750608E-1,3.199386597E-2
1.547353713E1,-1.713544130E-3,1.235225201E-1,1.282978058E-2
1.548949783E1,1.223837584E-2,1.182540208E-1,3.915691376E-2
1.550548904E1,4.816770554E-3,1.154425591E-1,2.238750458E-2
1.552144973E1,2.075180411E-3,7.952617109E-2,2.716827393E-2
1.553744094E1,8.919849992E-3,1.013702229E-1,2.955722809E-2
1.555340164E1,8.442997932E-3,1.088297665E-1,4.391956329E-2
1.556939285E1,8.245408535E-4,1.065604836E-1,3.193664551E-2
1.558535354E1,1.006543636E-2,9.288515151E-2,3.432083130E-2
1.560131423E1,1.453653723E-2,9.125532955E-2,2.234268188E-2
1.561733596E1,7.275737822E-3,9.003905952E-2,2.951622009E-2
1.563335769E1,-1.426250488E-2,9.617182612E-2,6.063365936E-2
1.564934890E1,-1.214431971E-2,8.125235140E-2,4.387187958E-2
1.566534011E1,-7.704183459E-3,8.577675372E-2,5.565643311E-3
1.568123977E1,4.012718797E-3,7.617145032E-2,4.387283325E-2
1.569723098E1,3.690451384E-3,7.876167446E-2,2.950859070E-2
1.571322219E1,1.065690070E-2,7.433290780E-2,3.429889679E-2
1.572918289E1,-6.313905120E-3,7.463110238E-2,3.669452667E-2
1.574514358E1,-1.356264949E-2,6.563428789E-2,1.993465424E-2
1.576110427E1,-8.701391518E-3,5.698676035E-2,4.626941681E-2
1.577709548E1,-1.587752998E-2,8.184941113E-2,3.190422058E-2
1.579308669E1,7.017627358E-4,6.854251027E-2,-4.007339478E-3
1.580907790E1,5.417190492E-3,6.233535334E-2,2.711963654E-2
1.582503860E1,-1.780070364E-3,7.294492424E-2,1.754283905E-2
1.584099929E1,7.748566568E-3,7.156530023E-2,2.233314514E-2
1.585702102E1,-4.322357476E-3,6.548636407E-2,1.994037628E-2
1.587304275E1,-6.759069860E-3,6.435317546E-2,3.191280365E-2
1.588903396E1,2.818055451E-3,7.285898179E-2,2.712535858E-2
1.590499465E1,1.242162287E-2,5.285853148E-2,3.191375732E-2
1.592095535E1,3.081858158E-4,5.911495909E-2,5.579948425E-3
1.593700759E1,-1.425583661E-2,6.533218175E-2,1.516056061E-2
1.595296829E1,-1.200196147E-2,5.487763882E-2,2.713489532E-2
1.596895950E1,-1.204568893E-2,6.363793463E-2,4.868412018E-2
1.598492019E1,-4.950329661E-3,5.801199377E-2,2.953338623E-2
1.600091140E1,-9.844794869E-3,3.565612063E-2,3.432369232E-2
1.601687210E1,-2.750210464E-3,4.466147348E-2,1.996040344E-2
1.603283279E1,-3.202632070E-4,5.851069838E-2,2.235507965E-2
1.604882400E1,-1.228167862E-2,4.613613337E-2,4.869174957E-2
1.606478469E1,-1.735045016E-2,5.536732078E-2,1.996517181E-2
1.608074539E1,-3.005534410E-3,5.485817045E-2,2.714920044E-2
1.609676711E1,-7.838390768E-3,4.729392380E-2,2.954387665E-2
1.611278884E1,-6.759166718E-4,4.455870762E-2,2.236270905E-2
1.612878005E1,4.009738564E-3,5.374181271E-2,2.954673767E-2
1.614477126E1,1.342080534E-2,4.145392030E-2,3.912639618E-2
1.616070144E1,-3.471180797E-2,5.547566712E-2,3.434276581E-2
1.617669265E1,-1.099441200E-2,5.263538286E-2,2.476882935E-2
1.619265334E1,8.731186390E-4,4.269747064E-2,1.998329163E-2
1.620864456E1,7.924407721E-3,5.421494320E-2,3.195667267E-2
1.622460525E1,-6.516322494E-3,4.889390990E-2,2.956485748E-2
1.624056594E1,-1.385939866E-2,5.578474700E-2,3.674983978E-2
1.625658767E1,-4.537984729E-3,4.336603731E-2,2.957057953E-2
1.627260940E1,-2.326548100E-3,5.017628893E-2,1.281547546E-2
1.628860061E1,1.423202455E-2,3.321971372E-2,3.197193146E-2
1.630459182E1,-1.239299029E-2,4.491133615E-2,2.718830109E-2
1.632052200E1,1.751929522E-3,3.494841605E-2,4.873943329E-2
1.633651321E1,6.428837776E-3,4.200722277E-2,1.522254944E-2
1.635250442E1,-5.726024508E-3,4.625522718E-2,2.240943909E-2
1.636846511E1,-3.420904279E-3,5.080302805E-2,8.045196533E-3
1.638439529E1,-3.372639418E-3,4.814006388E-2,2.959251404E-2
1.640041702E1,-3.397315741E-3,4.548873007E-2,3.438186646E-2
1.641637771E1,-1.017093658E-3,5.956641212E-2,3.677749634E-2
1.643230789E1,1.078014076E-2,5.435261503E-2,2.241611481E-2
1.644829910E1,-1.091933995E-2,4.687145352E-2,2.960014343E-2
1.646425979E1,-1.119252294E-2,3.950699419E-2,5.833530426E-2
1.648015945E1,7.654353976E-3,4.402629286E-2,2.960968018E-2
1.649621169E1,-7.024139166E-3,3.411889821E-2,2.482604980E-2
1.651217239E1,7.332593203E-3,3.618348017E-2,2.482700348E-2
1.652816360E1,2.713918686E-3,3.611654043E-2,2.243137360E-2
1.654412429E1,-7.128372788E-3,5.493748188E-2,2.482891083E-2
1.656005447E1,-1.185726374E-2,4.711976647E-2,3.919601440E-2
1.657607620E1,7.442548871E-3,3.922130167E-2,3.919601440E-2
1.659203689E1,-1.882137358E-2,2.895202301E-2,1.764869690E-2
1.660802810E1,-2.111385763E-2,3.777560592E-2,3.201484680E-2
1.662401931E1,-2.576286346E-2,3.705606610E-2,2.722644806E-2
1.663998000E1,-2.084238827E-2,4.099873453E-2,2.962207794E-2
1.665594070E1,-1.571687311E-2,4.740433022E-2,1.046657562E-2
1.667190139E1,-1.798407733E-2,3.468766809E-2,2.962017059E-2
1.668786209E1,-5.838975310E-3,4.354608059E-2,3.440856934E-2
1.670388381E1,-8.147642016E-3,3.569997475E-2,2.243995667E-2
1.671990554E1,3.872513771E-3,-7.979050279E-4,8.075714111E-3
1.673589675E1,-1.747518778E-2,3.239129111E-2,1.046848297E-2
1.675188796E1,-7.810950279E-3,2.247370780E-2,5.680084229E-3
1.676787918E1,-1.025397331E-2,1.004742458E-2,2.723121643E-2
1.678383987E1,-2.685744315E-2,2.876896411E-2,2.004718781E-2
1.679980056E1,-1.730749011E-2,2.841374651E-2,2.723121643E-2
1.681579177E1,1.876236498E-2,1.361418888E-2,3.441333771E-2
1.683181350E1,-2.274364233E-4,2.536516637E-2,1.047039032E-2
1.684777419E1,-9.770415723E-3,3.457539156E-2,3.680801392E-2
1.686370437E1,3.524124622E-5,3.177831694E-2,2.244186401E-2
1.687969558E1,-4.616633058E-3,3.846449405E-2,3.201866150E-2
1.689568679E1,-4.775047302E-3,4.539060220E-2,2.723312378E-2
1.691167800E1,-1.185553521E-2,3.540362045E-2,1.765632629E-2
1.692766921E1,-4.758119583E-3,3.021768853E-2,3.202438354E-2
1.694366042E1,4.895329475E-3,2.253449336E-2,1.047611237E-2
1.695959060E1,-1.187168807E-2,2.935577929E-2,4.160404205E-2
1.697564285E1,1.153796911E-4,1.226088777E-2,2.005672455E-2
1.699160354E1,-2.123832703E-3,1.687422395E-2,8.084297180E-3
1.700759475E1,2.328604460E-4,9.498883039E-3,8.085250854E-3
1.702355544E1,-1.175936311E-2,1.413458213E-2,3.202915192E-2
1.703951614E1,-2.013519406E-3,1.876026765E-2,1.766204834E-2
1.705547683E1,-6.832450628E-3,1.605795324E-2,1.526927948E-2
1.707143752E1,-2.239689231E-3,2.753300220E-2,1.527404785E-2
1.708742874E1,-1.417960972E-2,3.222775459E-2,2.245616913E-2
1.710341995E1,-2.379607409E-2,2.961576357E-2,2.485179901E-2
1.711944168E1,1.713335514E-4,2.708042413E-2,3.203487396E-2
1.713540237E1,-4.603937268E-3,3.412986919E-2,9.107589722E-4
1.715136306E1,-2.068668604E-3,1.957130805E-2,-3.878593445E-3
1.716735427E1,-1.164891571E-2,2.415106818E-2,1.048755646E-2
1.718337600E1,2.923995256E-3,2.408497036E-2,8.090972900E-3
1.719939773E1,-1.410201937E-2,2.213037759E-2,9.098052979E-4
1.721538894E1,-3.851248324E-2,1.355892420E-2,1.527690887E-2
1.723134963E1,1.623655856E-2,1.477912813E-2,1.288223267E-2
1.724731033E1,8.648410439E-3,2.346789464E-2,1.048660278E-2
1.726327102E1,1.484984159E-2,7.021714002E-3,3.203773499E-2
1.727932327E1,-2.213503420E-2,2.212620154E-2,2.006912231E-2
1.729528396E1,-6.121650338E-3,2.205565199E-2,1.528263092E-2
1.731124465E1,5.180150270E-3,2.681830153E-2,-8.657455444E-3
1.732723586E1,-1.717599481E-2,3.676556796E-2,-8.654594421E-3
1.734325759E1,-1.384015381E-2,1.346605271E-2,2.487182617E-2
1.735927932E1,-8.586362004E-3,2.542355470E-2,2.488613129E-2
1.737520950E1,-3.981888294E-4,8.267996833E-3,1.532173157E-2
1.739117019E1,1.259429753E-2,1.127127931E-2,1.055145264E-2
1.740716140E1,-2.445115894E-2,1.760285906E-2,5.780220032E-3
1.742312210E1,-6.193131208E-3,2.066359296E-2,4.410076141E-2
1.743902175E1,-4.715919495E-3,1.992627978E-2,2.496433258E-2
1.745501296E1,-2.243132889E-2,8.544133976E-3,1.780700684E-2
1.747100418E1,-1.843465865E-2,4.062153399E-3,2.742576599E-2
1.748699539E1,4.892811179E-3,2.465911396E-2,3.232097626E-2
1.750295608E1,1.660570502E-2,-8.915744722E-3,2.518272400E-2
1.751891677E1,6.801456213E-3,9.492479265E-3,3.715515137E-3
1.753490798E1,1.949071884E-3,1.672714204E-2,1.095390320E-2
1.755089919E1,-1.485908031E-2,1.931391656E-2,1.419067383E-3
1.756685989E1,-3.090575337E-3,1.466619968E-2,3.259086609E-2
1.758285110E1,-3.250315785E-3,1.183567196E-2,2.307987213E-2
1.759884231E1,-1.034039259E-2,2.629268169E-2,2.557086945E-2
1.761480300E1,-1.462468505E-2,2.494081855E-3,1.373004913E-2
1.763073318E1,9.892821312E-3,1.226525754E-2,6.661415100E-3
1.764672439E1,-1.526609063E-3,3.700390458E-3,1.151847839E-2
1.766265456E1,1.516669989E-3,-9.692907333E-4,-2.821922302E-3
1.767864578E1,-5.417838693E-3,1.684718579E-2,1.391601562E-2
1.769460647E1,1.621839404E-2,-7.801309228E-3,2.827072144E-2
1.771059768E1,-7.390886545E-3,6.531566381E-3,2.111434937E-2
1.772652786E1,-2.126321197E-3,-2.639442682E-3,9.210586548E-3
1.774254959E1,5.582869053E-4,-1.034422219E-2,1.648712158E-2
1.775851028E1,-3.800496459E-3,-1.193346083E-2,-9.733200073E-3
1.777447097E1,-8.062645793E-3,-1.565830410E-2,1.433753967E-2
1.779043166E1,-1.471447945E-2,-3.951734304E-2,4.877090454E-3
1.780642288E1,1.684874296E-4,-2.699998021E-2,-1.897907257E-2
1.782244460E1,2.843394876E-3,-2.374261618E-2,1.459693909E-2
1.783846633E1,-6.305798888E-3,-2.564959228E-2,2.661418915E-2
1.785445754E1,-1.775726676E-2,-1.799757779E-2,2.187252045E-2
1.787041824E1,1.168882847E-2,-3.548735380E-2,2.194023132E-2
1.788637893E1,-2.481102943E-3,-1.394307613E-2,1.245403290E-2
1.790233962E1,1.000759006E-2,-1.672908664E-2,1.976680756E-2
1.791833084E1,1.511675119E-2,-5.606766045E-2,1.994132996E-2
1.793429153E1,8.635044098E-3,-4.484789073E-2,5.759239197E-3
1.795025222E1,-2.051442862E-4,-6.986698508E-2,2.264595032E-2
1.796621292E1,-6.679028273E-3,-6.400211155E-2,1.168251038E-3
1.798223464E1,-1.541420817E-3,-4.979196191E-2,1.079368591E-2
1.799825637E1,-1.084998250E-3,-5.301165581E-2,3.955459595E-2
1.801418655E1,-6.934404373E-4,-5.416832864E-2,2.042579651E-2
1.803014724E1,-4.888176918E-4,-5.461950600E-2,1.089286804E-2
1.804613845E1,6.933361292E-3,-6.033191085E-2,1.577091217E-2
1.806209914E1,-1.189659536E-2,-6.533385813E-2,2.545547485E-2
1.807809036E1,-1.144598424E-2,-5.361273885E-2,-1.034927368E-2
1.809408157E1,8.141711354E-3,-6.734684110E-2,3.281688690E-2
1.811004226E1,-1.055456698E-2,-7.595217228E-2,1.607704163E-2
1.812603347E1,-5.574077368E-3,-7.159337401E-2,-5.485534668E-3
1.814202468E1,2.095107734E-2,-6.803047657E-2,3.524398804E-2
1.815804641E1,4.171863198E-3,-6.569853425E-2,3.297328949E-2
1.817400710E1,-3.332942724E-4,-9.277999401E-2,1.398658752E-2
1.818999832E1,-7.265791297E-3,-8.853089809E-2,6.982803345E-3
1.820592849E1,5.478352308E-3,-7.819131017E-2,-9.633064270E-3
1.822188918E1,1.769208908E-2,-8.446019888E-2,2.397632599E-2
1.823791091E1,-1.318619400E-2,-9.709790349E-2,1.684093475E-2
1.825390212E1,-8.066013455E-3,-7.719722390E-2,3.361606598E-2
1.826989334E1,1.844274998E-2,-7.556322217E-2,9.719848633E-3
1.828588455E1,-2.885788679E-3,-1.214606762E-1,2.420997620E-2
1.830181472E1,1.165609062E-2,-1.029231548E-1,1.003742218E-2
1.831780593E1,2.710476518E-3,-9.927996993E-2,-4.153251648E-3
1.833376663E1,-1.541316509E-3,-1.058705449E-1,-1.364421844E-2
1.834972732E1,3.665715456E-3,-9.395089746E-2,5.501747131E-3
1.836568801E1,1.581510901E-2,-1.117069423E-1,1.504611969E-2
1.838164871E1,6.314024329E-3,-9.679499269E-2,3.660964966E-2
1.839767043E1,1.757577062E-3,-1.077243388E-1,3.671455383E-2
1.841363113E1,-1.453442872E-2,-1.068861485E-1,1.780891418E-2
1.842959182E1,1.951041073E-2,-1.120114625E-1,-3.445625305E-3
1.844558303E1,-1.699075103E-3,-1.135409176E-1,-5.656242371E-3
1.846160476E1,-3.998361528E-3,-1.044121981E-1,3.904342651E-3
1.847762649E1,3.168888390E-3,-9.325793386E-2,3.013420105E-2
1.849358718E1,7.978379726E-3,-1.005017161E-1,2.534294128E-2
1.850954788E1,1.285918802E-2,-1.157146990E-1,1.589679718E-2
1.852553909E1,8.449889719E-3,-1.257646978E-1,1.372718811E-2
1.854153030E1,1.624383032E-3,-1.150191426E-1,6.745338440E-3
1.855755203E1,4.224024713E-3,-1.130830050E-1,1.407718658E-2
1.857351272E1,1.383460313E-2,-1.018851399E-1,3.097915649E-2
1.858947341E1,4.352837801E-3,-9.767282009E-2,1.924610138E-2
1.860543411E1,9.090356529E-3,-1.058463454E-1,2.905082703E-2
1.862142532E1,-7.608763874E-3,-1.119982004E-1,1.490306854E-2
1.863741653E1,4.735976458E-3,-1.147399843E-1,-6.482124329E-3
1.865340774E1,1.453764737E-2,-1.088568270E-1,2.228736877E-2
1.866933792E1,4.934825003E-3,-8.560505509E-2,1.977634430E-2
1.868532913E1,1.925095916E-2,-1.020179689E-1,2.936649323E-2
1.870128982E1,1.205099374E-2,-9.424790740E-2,2.717876434E-2
1.871728103E1,1.431825757E-2,-9.792199731E-2,3.655433655E-3
1.873324172E1,4.818066955E-3,-1.398198009E-1,-1.296234131E-2
1.874923293E1,4.730008543E-3,-1.090966761E-1,2.552318573E-2
1.876519363E1,-1.202593744E-2,-1.372318864E-1,8.787155151E-3
1.878115432E1,4.628986120E-3,-1.217465997E-1,1.113224030E-2
1.879717605E1,1.658832282E-2,-1.338379681E-1,2.549266815E-2
1.881316726E1,1.202329248E-2,-1.303903162E-1,-1.038074493E-2
1.882909744E1,4.402175546E-3,-1.317873597E-1,3.275966644E-2
1.884508865E1,-7.218495011E-4,-1.316464841E-1,2.338886261E-2
1.886104934E1,-3.054894507E-3,-1.125980318E-1,6.821632385E-3
1.887694900E1,1.155298948E-2,-1.449496150E-1,-2.610206604E-3
1.889300124E1,-7.603369653E-3,-1.227344871E-1,1.188564301E-2
1.890899246E1,1.616688818E-2,-1.171869040E-1,2.877998352E-2
1.892498367E1,-5.532614887E-3,-1.066186428E-1,1.955032349E-4
1.894094436E1,-1.067668200E-3,-1.273332834E-1,3.864669800E-2
1.895690505E1,-3.570735455E-3,-1.270207763E-1,1.013946533E-2
1.897292678E1,1.541424543E-2,-1.332868040E-1,5.603790283E-3
1.898894851E1,1.037871838E-2,-1.192669272E-1,1.538181305E-2
1.900490920E1,7.660515606E-3,-1.394147873E-1,3.949832916E-2
1.902086990E1,2.943798900E-4,-1.204515696E-1,4.449748993E-2
1.903683059E1,9.788863361E-3,-1.172612906E-1,4.053115845E-3
1.905282180E1,1.219506562E-2,-1.104647219E-1,1.383495331E-2
1.906881301E1,1.661679149E-2,-1.270172596E-1,2.593231201E-2
1.908480422E1,-5.875080824E-4,-1.337815225E-1,1.888847351E-2
1.910073440E1,-7.897146046E-3,-1.192555726E-1,9.547233582E-3
1.911672561E1,6.266131997E-3,-1.108721495E-1,1.941490173E-2
1.913268630E1,-8.449994028E-3,-1.219018400E-1,1.251506805E-2
1.914867751E1,3.236815333E-3,-1.339606941E-1,2.460289001E-2
1.916466873E1,3.766953945E-3,-1.205098927E-1,4.405975342E-2
1.918062942E1,-2.022944391E-2,-1.159307063E-1,2.046775818E-2
1.919659011E1,3.814592957E-3,-1.272276044E-1,3.984451294E-3
1.921264236E1,1.395747066E-3,-1.140175462E-1,2.093124390E-2
1.922860305E1,-8.598864079E-4,-1.227440238E-1,3.306674957E-2
1.924459426E1,1.403585076E-3,-1.255323887E-1,1.880741119E-2
1.926055496E1,3.664493561E-3,-1.225732565E-1,2.123260498E-2
1.927648513E1,-6.008267403E-3,-1.198046803E-1,1.898384094E-2
1.929250686E1,1.542098820E-2,-1.364191175E-1,7.146835327E-3
1.930846755E1,9.127408266E-4,-1.355044842E-1,3.844833374E-2
1.932445876E1,-6.435781717E-3,-1.364784837E-1,3.625965118E-2
1.934044998E1,-1.610343158E-2,-1.152971983E-1,2.213191986E-2
1.935638015E1,-1.405554265E-2,-1.080230474E-1,5.113124847E-2
1.937240188E1,1.684685051E-2,-1.142410040E-1,-3.620147705E-3
1.938836257E1,-1.834034920E-4,-1.189859509E-1,8.620262146E-3
1.940435378E1,-4.795774817E-3,-1.306469440E-1,2.805614471E-2
1.942028396E1,-1.861289144E-3,-1.098672748E-1,-1.003360748E-2
1.943624465E1,-6.671622396E-3,-1.277698278E-1,1.371097565E-2
1.945226638E1,1.700934768E-2,-1.140328050E-1,4.932594299E-2
1.946825759E1,-1.973269880E-2,-1.056506634E-1,4.674434662E-2
1.948424880E1,-1.525264233E-2,-1.233583689E-1,4.204082489E-2
1.950024001E1,-3.192454576E-3,-1.318147182E-1,2.081871033E-2
1.951617019E1,6.604135036E-3,-1.479296088E-1,-2.822875977E-3
1.953219192E1,-1.243922859E-2,-1.469157338E-1,-2.910327911E-2
1.954815261E1,-7.717326283E-3,-1.293957233E-1,2.334499359E-2
1.956414382E1,-5.478680134E-3,-1.349340081E-1,3.740310669E-2
1.958007400E1,-8.021742105E-4,-1.323852539E-1,3.488636017E-2
1.959603469E1,6.290614605E-3,-1.406576037E-1,1.820087433E-2
1.961208694E1,3.966644406E-3,-1.378499269E-1,2.793216705E-2
1.962804763E1,1.494437456E-3,-1.520129442E-1,1.371192932E-2
1.964403884E1,-3.268465400E-3,-1.301951408E-1,1.372718811E-2
1.965999954E1,1.131413877E-2,-1.454288960E-1,1.128196716E-2
1.967589919E1,1.534685493E-3,-1.469610929E-1,8.804321289E-3
1.969189041E1,-5.698770285E-3,-1.453075409E-1,3.988933563E-2
1.970785110E1,-1.077517867E-3,-1.448823214E-1,4.244232178E-2
1.972384231E1,1.073181629E-2,-1.634132862E-1,1.162338257E-2
1.973983352E1,-1.333682984E-2,-1.562606692E-1,-7.258415222E-3
1.975582473E1,-3.661319613E-3,-1.624658108E-1,1.144409180E-4
1.977178542E1,1.216217875E-3,-1.398999691E-1,2.429008484E-3
1.978771560E1,1.283481717E-3,-1.481391788E-1,1.180839539E-2
1.980367629E1,-8.360236883E-3,-1.350998282E-1,3.088760376E-2
1.981966750E1,-5.783751607E-3,-1.377490759E-1,5.016040802E-2
1.983563531E1,-5.687281489E-3,-1.410659552E-1,2.657508850E-2
1.985159600E1,1.824042201E-2,-1.456164122E-1,5.456924438E-3
1.986758721E1,6.483718753E-3,-1.549193263E-1,1.772117615E-2
1.988357842E1,1.415506005E-3,-1.372234225E-1,1.299190521E-2
1.989953912E1,-8.314579725E-3,-1.395553946E-1,2.243328094E-2
1.991549981E1,-2.273568511E-2,-1.138668060E-1,7.890701294E-3
1.993155206E1,1.306726038E-2,-1.267325878E-1,4.135990143E-2
1.994751275E1,-6.043642759E-3,-1.215634942E-1,3.194427490E-2
1.996350396E1,-1.181110740E-3,-1.260705590E-1,8.298873901E-3
1.997946465E1,-1.312684268E-2,-1.187481284E-1,1.577281952E-2
1.999545586E1,-5.723953247E-3,-1.302800775E-1,8.757591248E-3
2.001144707E1,1.089981198E-2,-1.109925508E-1,6.372451782E-3
2.002737725E1,1.777377725E-2,-1.218040586E-1,2.545738220E-2
2.004336846E1,-1.362980157E-2,-1.238347292E-1,2.294445038E-2
2.005932915E1,2.832457423E-3,-1.275148392E-1,8.506774902E-3
2.007522881E1,-4.464089870E-3,-1.240548491E-1,3.251361847E-2
2.009125054E1,-9.003728628E-3,-1.215830445E-1,1.604080200E-2
2.010724175E1,-1.868411899E-3,-1.095039845E-1,1.827239990E-3
2.012323296E1,-1.382402331E-2,-1.062548757E-1,2.342700958E-2
2.013922417E1,-1.867249608E-2,-1.027270555E-1,2.589035034E-2
2.015512383E1,1.234798133E-2,-9.058785439E-2,1.886463165E-2
2.017117608E1,-4.578337073E-3,-9.942191839E-2,2.145195007E-2
2.018713677E1,2.507299185E-3,-1.064368486E-1,1.682090759E-2
2.020312798E1,-4.560783505E-3,-1.081346273E-1,2.404499054E-2
2.021908868E1,3.003627062E-4,-9.768581390E-2,2.873897552E-2
2.023501885E1,-1.399710029E-2,-1.000921726E-1,2.140903473E-2
2.025101006E1,-1.861812174E-2,-9.502077103E-2,5.000877380E-2
2.026697076E1,6.996095181E-4,-1.023235917E-1,5.478763580E-2
2.028296197E1,7.985696197E-3,-1.191996932E-1,-7.325172424E-3
2.029892266E1,-1.556754112E-3,-1.206438541E-1,2.639961243E-2
2.031491387E1,-1.596488804E-2,-1.114096642E-1,1.455402374E-2
2.033087456E1,-1.489222050E-3,-1.104627252E-1,1.700401306E-2
2.034683526E1,-8.830472827E-3,-1.079739332E-1,2.527236938E-4
2.036279595E1,-2.335348725E-2,-1.050633192E-1,1.944065094E-2
2.037878716E1,-1.379599422E-2,-8.943116665E-2,9.943008423E-3
2.039477837E1,-1.146350056E-2,-8.072078228E-2,1.961421967E-2
2.041076958E1,-6.689175963E-3,-1.053876877E-1,5.084323883E-2
2.042676080E1,-6.507411599E-3,-8.912050724E-2,1.025772095E-2
2.044275201E1,-3.792569041E-3,-8.532798290E-2,2.710056305E-2
2.045871270E1,6.106019020E-3,-9.460753202E-2,5.566596985E-3
2.047467339E1,-6.080999970E-3,-8.297276497E-2,1.273059845E-2
2.049069512E1,3.520190716E-3,-9.489023685E-2,5.583000183E-2
2.050665581E1,-1.087427884E-2,-8.949202299E-2,1.037788391E-2
2.052264702E1,-3.239001334E-2,-9.542745352E-2,2.482128143E-2
2.053857720E1,8.732408285E-3,-8.411836624E-2,2.492427826E-2
2.055450738E1,-7.832944393E-4,-7.111495733E-2,2.977752686E-2
2.057052911E1,-1.018809527E-2,-9.975618124E-2,8.232116699E-3
2.058648980E1,2.009838820E-3,-9.069359303E-2,2.495670319E-2
2.060248101E1,-1.227434725E-2,-1.005478501E-1,2.972602844E-2
2.061847222E1,4.431679845E-3,-8.803749084E-2,1.778984070E-2
2.063449395E1,-1.941145957E-2,-7.909631729E-2,2.508163452E-2
2.065045464E1,-1.673161983E-2,-8.411425352E-2,1.324462891E-2
2.066644585E1,2.479985356E-3,-8.460319042E-2,1.336383820E-2
2.068240655E1,-4.722699523E-3,-7.727611065E-2,3.971004486E-2
2.069836724E1,-1.207347959E-2,-8.544230461E-2,2.767944336E-2
2.071435845E1,1.171754301E-2,-9.124863148E-2,3.719329834E-2
2.073034966E1,1.933813095E-3,-8.018970490E-2,3.234958649E-2
2.074637139E1,-5.418151617E-3,-8.963227272E-2,-8.492469788E-3
2.076233208E1,8.737757802E-3,-8.038020134E-2,4.625701904E-2
2.077829278E1,6.287127733E-3,-6.243079901E-2,1.715373993E-2
2.079425347E1,-1.757045090E-2,-8.537989855E-2,1.691818237E-2
2.081024468E1,1.552015543E-3,-1.004432440E-1,1.194095612E-2
2.082626641E1,1.634016633E-3,-9.326410294E-2,1.926422119E-3
2.084222710E1,-2.232453227E-2,-8.698356152E-2,2.749252319E-2
2.085815728E1,4.212304950E-3,-8.413839340E-2,4.569339752E-2
2.087414849E1,-2.860829234E-3,-7.375580072E-2,4.505825043E-2
2.089013970E1,9.241387248E-3,-7.891970873E-2,5.181694031E-2
2.090610039E1,-2.165690064E-2,-7.667344809E-2,1.575946808E-2
2.092209161E1,-2.252414823E-3,-7.107031345E-2,3.242874146E-2
2.093808282E1,-1.637658477E-2,-7.648950815E-2,1.789474487E-2
2.095404351E1,-4.250794649E-3,-4.919773340E-2,2.713012695E-2
2.097000420E1,-2.069607377E-3,-5.039799213E-2,5.301761627E-2
2.098596490E1,-7.042557001E-3,-3.776609898E-2,3.352069855E-2
2.100192559E1,5.508959293E-5,-3.825855255E-2,2.858352661E-2
2.101794732E1,-7.490858436E-3,-7.237827778E-2,3.334426880E-2
2.103396905E1,-5.865842104E-4,-4.513913393E-2,1.890563965E-2
2.104992974E1,-3.145366907E-3,-6.178683043E-2,2.572441101E-2
2.106589043E1,3.890693188E-3,-5.084371567E-2,1.597404480E-2
2.108188164E1,-1.790826023E-2,-4.451441765E-2,2.514743805E-2
2.109787286E1,-8.414953947E-3,-2.408680320E-2,7.925033569E-4
2.111389458E1,-1.583073288E-2,-4.476994276E-2,5.304241180E-2
2.112985528E1,-8.600562811E-3,-2.602353692E-2,1.436901093E-2
2.114584649E1,-3.868132830E-3,-2.691328526E-2,2.367782593E-2
2.116183770E1,-1.634508371E-3,-1.771339774E-2,4.977416992E-2
2.117779839E1,5.351006985E-4,-1.954907179E-2,4.479217529E-2
2.119375909E1,2.568960190E-4,-3.218981624E-2,1.353073120E-2
2.120975030E1,2.290621400E-3,-1.361721754E-2,8.609771729E-3
2.122574151E1,-1.498856395E-2,-2.456858754E-2,3.717803955E-2
2.124173272E1,-1.501103491E-2,-7.482200861E-3,7.767868042E-2
2.125769341E1,-7.428079844E-4,-2.147737145E-2,1.523399353E-2
2.127368462E1,1.447796822E-3,-1.324933767E-2,7.066726685E-4
2.128964532E1,-8.224189281E-3,-1.663178205E-2,4.365539551E-2
2.130563653E1,3.428220749E-3,5.649358034E-3,1.236057281E-2
2.132159722E1,-4.053339362E-3,-1.556593180E-2,2.174949646E-2
2.133755791E1,2.790540457E-4,-7.978767157E-3,4.790592194E-2
2.135348809E1,1.193323731E-2,-1.086401939E-2,4.300022125E-2
2.136950982E1,2.178713679E-3,-1.056078076E-2,1.179122925E-2
2.138547051E1,-1.966138929E-2,-1.191109419E-3,3.323459625E-2
2.140146172E1,6.611585617E-3,-1.933288574E-2,3.068637848E-2
2.141745293E1,-7.943466306E-3,4.505097866E-3,4.485416412E-2
2.143335259E1,-8.564144373E-4,1.645684242E-3,5.182552338E-2
2.144934380E1,1.564958692E-2,1.094418764E-2,2.289772034E-2
2.146530450E1,8.283451200E-3,6.798118353E-3,2.264404297E-2
2.148129571E1,-1.352521777E-2,-2.924501896E-3,3.433799744E-2
2.149725640E1,-2.101173252E-2,2.163827419E-2,1.494026184E-2
2.151321709E1,-9.249135852E-3,1.269802451E-2,2.436542511E-2
2.152926934E1,-9.481936693E-3,1.901674271E-2,2.424907684E-2
2.154523003E1,-9.569123387E-3,5.751281977E-3,1.214408875E-2
2.156122124E1,-5.232542753E-3,-4.884541035E-3,9.546279907E-3
2.157721246E1,-1.769741625E-2,8.890062571E-3,4.519081116E-2
2.159320367E1,-3.740847111E-3,2.049833536E-2,1.141834259E-2
2.160916436E1,-1.354993880E-2,1.006835699E-2,2.559566498E-2
2.162512505E1,-1.724123955E-3,1.758617163E-2,1.355838776E-2
2.164111626E1,-2.569173276E-2,1.000845432E-2,2.312278748E-2
2.165707696E1,-1.872390509E-3,2.546760440E-2,1.533508301E-3
2.167300713E1,5.000054836E-3,1.895740628E-2,-9.927749634E-4
2.168899834E1,-1.681894064E-4,2.159461379E-2,5.970954895E-3
2.170495904E1,-1.041971147E-2,2.758070827E-2,3.923416138E-2
2.172095025E1,-1.587574184E-2,2.535897493E-2,1.748085022E-2
2.173694146E1,-1.595810056E-2,3.415128589E-2,3.167915344E-2
2.175287164E1,1.974149048E-2,3.036129475E-2,1.959800720E-2
2.176892388E1,5.099177361E-4,2.971267700E-2,1.472091675E-2
2.178488457E1,-2.116779238E-2,3.049218655E-2,1.221370697E-2
2.180087579E1,-5.003497005E-3,3.661158681E-2,2.402591705E-2
2.181683648E1,-1.037099957E-2,2.314886451E-2,4.527664185E-2
2.183279717E1,8.406952024E-3,4.212561250E-2,4.029750824E-2
2.184881890E1,-1.562228799E-2,3.476753831E-2,4.980850220E-2
2.186484063E1,-1.089987159E-2,2.679799497E-2,2.578544617E-2
2.188083184E1,-8.680462837E-3,3.204639256E-2,4.728507996E-2
2.189682305E1,-1.571057737E-2,2.348364890E-2,-6.361007690E-4
2.191272271E1,-6.058499217E-3,3.287120163E-2,2.078628540E-2
2.192877496E1,-2.064521611E-2,3.918552399E-2,1.831436157E-2
2.194473565E1,3.132507205E-3,3.276561201E-2,8.584022522E-3
2.196066582E1,3.025919199E-3,4.963189363E-2,4.438972473E-2
2.197659600E1,5.404785275E-3,7.726682723E-2,3.473186493E-2
2.199261773E1,-1.157125831E-2,6.379519403E-2,3.475570679E-2
2.200863946E1,-2.582757920E-2,7.392568886E-2,6.360912323E-2
2.202463067E1,1.262713969E-2,5.690690875E-2,2.067756653E-2
2.204059136E1,3.325492144E-3,6.413026154E-2,1.839828491E-2
2.205661309E1,-3.904312849E-3,7.450854778E-2,-5.522727966E-3
2.207257378E1,-1.618638635E-3,8.389925957E-2,2.553939819E-2
2.208853448E1,5.392551422E-3,9.657277167E-2,5.177783966E-2
2.210446465E1,-1.970306039E-3,1.077496260E-1,3.494453430E-2
2.212045586E1,7.666870952E-3,1.017284244E-1,3.251934052E-2
2.213641656E1,1.725775003E-2,1.005001664E-1,3.973007202E-2
2.215237725E1,1.499266922E-2,1.110996753E-1,4.459857941E-2
2.216839898E1,1.491266489E-2,1.193011999E-1,1.834678650E-2
2.218442071E1,-1.362915337E-2,1.187086701E-1,1.360034943E-2
2.220038140E1,3.024965525E-3,1.395927966E-1,2.076816559E-2
2.221634209E1,-8.965939283E-3,1.231704429E-1,3.987121582E-2
2.223230279E1,-1.853546500E-2,1.426202357E-1,4.700279236E-2
2.224826348E1,-8.828520775E-3,1.265793145E-1,3.020095825E-2
2.226422417E1,1.028968394E-2,1.508941352E-1,3.254699707E-2
2.228021538E1,-8.715003729E-3,1.216340661E-1,3.486919403E-2
2.229623711E1,8.301317692E-3,1.277253777E-1,1.813697815E-2
2.231225884E1,-3.597840667E-3,1.422292590E-1,3.244781494E-2
2.232821954E1,8.410438895E-3,1.294242889E-1,1.316261292E-2
2.234418023E1,8.421540260E-3,1.248243451E-1,2.981758118E-2
2.236014092E1,1.494467258E-3,1.454412937E-1,2.016258240E-2
2.237610162E1,8.666679263E-3,1.458937526E-1,8.096694946E-3
2.239206231E1,1.120668650E-2,1.468908638E-1,3.669261932E-2
2.240805352E1,1.097808778E-2,1.370764077E-1,3.893756866E-2
2.242401421E1,-6.029099226E-3,1.422343552E-1,2.683258057E-2
2.244000542E1,1.278977096E-2,1.506314278E-1,4.348278046E-2
2.245596612E1,5.639120936E-3,1.328842789E-1,3.858470917E-2
2.247192681E1,-1.360198855E-2,1.557252556E-1,4.326820374E-2
2.248788750E1,5.744770169E-3,1.310687065E-1,3.598594666E-2
2.250384820E1,1.075327396E-3,1.355708987E-1,3.350353241E-2
2.251980889E1,-1.784177125E-2,1.418698579E-1,3.101253510E-2
2.253583062E1,-8.763968945E-4,1.210184395E-1,3.330135345E-2
2.255185235E1,1.348347962E-2,1.410165578E-1,2.602195740E-2
2.256781304E1,-5.651503801E-3,1.344033033E-1,1.874351501E-2
2.258377373E1,-1.042087376E-2,1.335447729E-1,3.781795502E-2
2.259970391E1,-7.650107145E-3,1.352410614E-1,1.622295380E-2
2.261572564E1,9.459272027E-3,1.255544275E-1,3.297615051E-2
2.263174737E1,1.866221428E-4,1.180623919E-1,1.624011993E-2
2.264770806E1,3.030210733E-3,1.231211945E-1,5.454444885E-2
2.266366875E1,-2.260266989E-2,1.349048615E-1,3.774166107E-2
2.267965997E1,-4.948958755E-3,1.498550475E-1,2.091312408E-2
2.269565118E1,2.897620201E-3,1.227671728E-1,4.241371155E-2
2.271167290E1,-1.471444964E-3,1.362580061E-1,8.848190308E-3
2.272763360E1,-8.303761482E-3,1.323966086E-1,3.034400940E-2
2.274359429E1,6.450265646E-3,1.334319562E-1,8.748054504E-3
2.275955498E1,-2.720281482E-3,1.276700348E-1,2.785778046E-2
2.277551568E1,-7.236555219E-3,1.284966320E-1,4.459571838E-2
2.279144585E1,9.689778090E-3,1.163590178E-1,3.740978241E-2
2.280749810E1,1.685425639E-2,1.319623888E-1,1.584911346E-2
2.282348931E1,-1.390485466E-2,1.194273680E-1,3.017807007E-2
2.283948052E1,1.587149501E-2,1.247830316E-1,4.211616516E-2
2.285547173E1,-4.820138216E-3,1.366234422E-1,2.292633057E-2
2.287137139E1,-1.562405378E-2,1.376209855E-1,-1.301765442E-2
2.288736260E1,-5.193948746E-3,1.132618636E-1,3.724575043E-2
2.290335381E1,-1.383998245E-2,1.391351521E-1,3.960037231E-2
2.291934502E1,-7.528945804E-3,1.466878653E-1,2.515220642E-2
2.293530572E1,5.726099014E-3,1.210099608E-1,3.705120087E-2
2.295120538E1,2.137646079E-3,1.397878677E-1,2.262973785E-2
2.296719659E1,4.655428231E-3,1.525010765E-1,3.461837769E-3
2.298315728E1,4.930369556E-3,1.487362683E-1,4.177284241E-2
2.299914849E1,1.702731848E-2,1.499157101E-1,3.699207306E-2
2.301510918E1,-4.304409027E-3,1.364380568E-1,1.544857025E-2
2.303110039E1,1.324117184E-4,1.495258808E-1,3.695583344E-2
2.304703057E1,-4.850700498E-3,1.253864765E-1,2.734661102E-2
2.306302178E1,-9.833373129E-3,1.328124404E-1,2.013683319E-2
2.307895196E1,2.108775824E-2,1.121936589E-1,4.166412354E-2
2.309497369E1,4.079222679E-3,1.254595220E-1,4.883003235E-2
2.311099541E1,1.354105771E-2,1.177900508E-1,2.726936340E-2
2.312695611E1,-8.070044219E-3,9.850810468E-2,2.965068817E-2
2.314291680E1,1.632243395E-3,1.154119372E-1,4.879188538E-2
2.315890801E1,-5.193203688E-4,1.253095418E-1,-1.500129700E-3
2.317486870E1,2.106204629E-3,1.037841141E-1,1.045894623E-2
2.319076836E1,2.202183008E-3,1.373724788E-1,2.002429962E-2
2.320679009E1,-5.068175495E-3,1.184588820E-1,2.241230011E-2
2.322278130E1,-2.809882164E-3,1.044401973E-1,2.001190186E-2
2.323877251E1,-1.253835112E-2,9.544616938E-2,3.437232971E-2
2.325473321E1,-7.815212011E-4,1.058185399E-1,3.676509857E-2
2.327069390E1,6.516844034E-3,1.067224443E-1,-3.943443298E-3
2.328671563E1,-5.740955472E-3,9.103348106E-2,2.478694916E-2
2.330273736E1,-1.042363793E-2,1.044928059E-1,3.675365448E-2
2.331872857E1,-1.285060495E-2,7.271740586E-2,1.759910583E-2
2.333471978E1,-1.301131397E-2,8.663595468E-2,2.957057953E-2
2.335061944E1,-5.959376693E-3,9.829626977E-2,3.196525574E-2
2.336664117E1,1.183822751E-3,6.906729937E-2,3.675365448E-2
2.338263238E1,9.908825159E-4,9.296695888E-2,2.957248688E-2
2.339862359E1,-8.786238730E-3,9.530457109E-2,2.957534790E-2
2.341458428E1,-6.586298347E-3,9.041641653E-2,3.436660767E-2
2.343054498E1,5.312994123E-3,1.020214558E-1,3.676033020E-2
2.344656670E1,1.232707500E-2,1.062387079E-1,2.000141144E-2
2.346258843E1,2.305656672E-3,1.052565053E-1,5.639076233E-3
2.347857964E1,-9.753547609E-3,8.347766101E-2,1.521682739E-2
2.349457085E1,-5.234271288E-3,9.019206464E-2,1.521873474E-2
2.351050103E1,-1.465567201E-2,1.041493416E-1,2.479267120E-2
2.352652276E1,-9.842656553E-3,8.219461143E-2,2.958011627E-2
2.354251397E1,-9.813554585E-3,8.190745115E-2,-3.938674927E-3
2.355847466E1,-1.620203257E-4,8.402847499E-2,4.154872894E-2
2.357440484E1,-4.131495953E-4,8.858974278E-2,4.873371124E-2
2.359039605E1,-5.128294230E-3,8.838780224E-2,1.521396637E-2
2.360635674E1,-9.938262403E-3,7.872281969E-2,1.760864258E-2
2.362231744E1,-7.345348597E-3,8.814983070E-2,3.915309906E-2
2.363830865E1,7.114917040E-3,9.036241472E-2,1.760387421E-2
2.365429986E1,-1.439342648E-2,9.260699153E-2,2.957344055E-2
2.367032159E1,3.740191460E-5,7.346615940E-2,2.478504181E-2
2.368628228E1,-4.682362080E-3,8.544891328E-2,1.281356812E-2
2.370221246E1,-4.590600729E-3,1.095095202E-1,3.675365448E-2
2.371820367E1,4.745751619E-3,8.291023225E-2,2.239131927E-2
2.373413384E1,-1.230477542E-2,7.102059573E-2,2.718448639E-2
2.375009454E1,4.429817200E-3,8.295854926E-2,8.478164673E-4
2.376611626E1,-6.573647261E-4,9.494040906E-2,2.718830109E-2
2.378213799E1,-5.579605699E-3,8.287166059E-2,3.676700592E-2
2.379809869E1,-8.089125156E-3,8.069850504E-2,2.719211578E-2
2.381405938E1,-1.548283547E-2,8.558592200E-2,2.719497681E-2
2.383002007E1,-2.971222252E-2,8.091090620E-2,8.039474487E-3
2.384601128E1,-1.521242410E-2,8.368431032E-2,1.522064209E-2
2.386200249E1,-8.178353310E-4,8.158331364E-2,4.155731201E-2
2.387796319E1,-9.127408266E-4,7.724022120E-2,1.522350311E-2
2.389395440E1,-3.220871091E-3,8.962335438E-2,4.155921936E-2
2.390997613E1,-1.042302698E-2,8.766043186E-2,2.719497681E-2
2.392593682E1,-5.610644817E-3,8.314456791E-2,1.522541046E-2
2.394192803E1,-1.052390784E-2,9.748384356E-2,4.395580292E-2
2.395785821E1,6.261885166E-3,1.067593172E-1,2.240848541E-2
2.397384942E1,-2.490515262E-2,9.687446058E-2,2.001285553E-2
2.398987115E1,-5.595937371E-3,9.628576040E-2,4.155826569E-2
2.400583184E1,-1.267132908E-2,8.613824844E-2,3.676700592E-2
2.402179253E1,4.086747766E-3,9.072332084E-2,3.247261047E-3
2.403775323E1,-3.055423498E-3,8.811696619E-2,2.000617981E-2
2.405368340E1,-1.496126503E-2,7.130093127E-2,1.521587372E-2
2.406964410E1,-1.231918484E-2,8.575636148E-2,8.478164673E-4
2.408563531E1,-1.933571696E-2,8.358827233E-2,5.635261536E-3
2.410162652E1,-2.322241664E-3,7.953382283E-2,8.023262024E-3
2.411755669E1,5.015790462E-3,8.212380111E-2,2.956485748E-2
2.413354790E1,-1.165152341E-2,9.266686440E-2,1.758956909E-2
2.414947808E1,-1.866979897E-2,7.693579048E-2,1.279640198E-2
2.416549981E1,-8.922405541E-3,8.208923787E-2,5.609512329E-3
2.418149102E1,-6.347700953E-3,6.024445221E-2,3.194046021E-2
2.419748223E1,-2.289459854E-2,7.218804955E-2,3.193569183E-2
2.421347344E1,-3.444239497E-3,7.925038785E-2,1.756572723E-2
2.422946465E1,-1.289317757E-2,6.988646090E-2,5.591392517E-3
2.424542535E1,-7.985614240E-3,5.577575788E-2,2.474212646E-2
2.426138604E1,-3.258720040E-3,7.310415059E-2,1.756095886E-2
2.427737725E1,3.905683756E-3,8.225554228E-2,1.277446747E-2
2.429336846E1,1.499727368E-3,4.781770334E-2,4.389858246E-2
2.430929864E1,1.080588996E-2,7.234746963E-2,5.596160889E-3
2.432535088E1,1.555445790E-2,5.163020268E-2,4.151058197E-2
2.434137261E1,-1.804472506E-2,5.011629686E-2,7.994651794E-3
2.435733330E1,1.171767712E-3,6.562362611E-2,5.109024048E-2
2.437326348E1,-1.162528992E-3,4.528537020E-2,4.390811920E-2
2.438925469E1,-1.077272743E-2,3.497852385E-2,1.278591156E-2
2.440521538E1,-3.791272640E-3,3.685419261E-2,8.000373840E-3
2.442117608E1,-1.602341235E-2,6.009972468E-2,3.194618225E-2
2.443713677E1,5.350947380E-3,4.268212616E-2,1.997852325E-2
2.445309747E1,-9.216584265E-3,5.392168462E-2,1.758861542E-2
2.446902764E1,-9.273849428E-3,6.335365772E-2,1.280117035E-2
2.448507989E1,7.093757391E-3,5.151933059E-2,1.998806000E-2
2.450110162E1,6.738826632E-3,3.032347560E-2,1.759910583E-2
2.451706231E1,-8.074074984E-3,3.541882336E-2,4.393959045E-2
2.453302300E1,1.217409968E-3,4.318626598E-2,3.197193146E-2
2.454898370E1,-9.022280574E-3,3.432743996E-2,1.521968842E-2
2.456494439E1,-1.394816488E-2,3.335342556E-2,4.155635834E-2
2.458090508E1,-1.701196283E-2,3.517178819E-2,5.113983154E-2
2.459686578E1,-1.132659614E-2,1.256482303E-2,-3.911018372E-3
2.461282647E1,6.330132484E-3,4.915798455E-2,4.159736633E-2
2.462872613E1,4.865065217E-3,2.894452214E-2,2.964687347E-2
2.464477837E1,-1.195356250E-3,2.937266976E-2,1.769828796E-2
2.466076958E1,-2.132352442E-2,3.062439710E-2,2.729320526E-2
2.467673028E1,6.736785173E-3,1.369225979E-2,3.209400177E-2
2.469266045E1,-1.051829755E-2,2.736041136E-2,3.210449219E-2
2.470865166E1,7.934719324E-4,3.222681582E-2,2.014636993E-2
2.472461236E1,-7.379829884E-3,1.502339169E-2,3.932380676E-2
2.474057305E1,-1.540824771E-2,3.826987371E-2,3.456592560E-2
2.475656426E1,8.094310760E-4,1.902380958E-2,3.699398041E-2
2.477255547E1,5.205437541E-3,2.755415998E-2,2.505397797E-2
2.478854668E1,-4.464298487E-3,1.985985599E-2,2.986335754E-2
2.480450738E1,-9.450614452E-3,4.582710192E-2,3.466510773E-2
2.482046807E1,4.747852683E-3,2.833789960E-2,1.791763306E-2
2.483645928E1,4.641011357E-3,3.099460900E-2,3.708648682E-2
2.485241998E1,9.022310376E-3,4.522338137E-2,3.711986542E-2
2.486838067E1,1.298293471E-3,3.968506679E-2,1.255989075E-3
2.488437188E1,-1.351225376E-2,1.431457698E-2,1.807975769E-2
2.490036309E1,-9.025573730E-3,1.834858209E-2,1.336669922E-2
2.491632378E1,-4.340738058E-3,1.439695805E-2,6.257057190E-3
2.493234551E1,-2.315606177E-2,2.306534350E-2,2.067661285E-2
2.494830620E1,5.778938532E-3,1.054947823E-2,3.029441833E-2
2.496429742E1,-6.238073111E-3,2.593015879E-2,2.793693542E-2
2.498028863E1,-6.239593029E-3,3.687398136E-2,5.191993713E-2
2.499624932E1,9.849071503E-4,3.727978468E-2,4.000663757E-2
2.501224053E1,8.380070329E-3,2.433620393E-2,4.968357086E-2
2.502826226E1,-3.153130412E-3,2.960230410E-2,2.353858948E-2
2.504425347E1,-1.504942775E-2,1.219189167E-2,2.120208740E-2
2.506021416E1,-5.308762193E-3,2.617412806E-2,3.327083588E-2
2.507620538E1,9.160310030E-3,4.120089859E-2,1.180553436E-2
2.509216607E1,2.051800489E-3,1.689918339E-2,2.384567261E-2
2.510818780E1,-3.791004419E-4,1.357530057E-2,-1.439857483E-2
2.512414849E1,6.617560983E-3,1.195338368E-2,3.354167938E-2
2.514010918E1,1.757726073E-3,1.224850118E-2,1.922321320E-2
2.515610039E1,-3.432556987E-3,1.373279095E-2,2.404308319E-2
2.517206109E1,1.320943236E-3,2.429182827E-2,9.695053101E-3
2.518805230E1,-1.278835535E-2,1.098860800E-2,7.274627686E-3
2.520404351E1,1.929670572E-3,-4.958346486E-3,3.361988068E-2
2.522003472E1,2.388074994E-3,-8.961364627E-3,3.845691681E-2
2.523599541E1,-2.010285854E-3,3.996938467E-4,2.656173706E-2
2.525195611E1,1.046463847E-3,-1.978576183E-4,3.381252289E-2
2.526797784E1,3.864765167E-3,-1.185205579E-2,1.230812073E-2
2.528393853E1,-1.997157931E-2,5.779162049E-3,1.711177826E-2
2.529992974E1,-7.921114564E-3,4.330351949E-3,4.585933685E-2
2.531589043E1,-1.015549898E-2,-2.333042026E-2,4.352951050E-2
2.533185113E1,-4.961490631E-3,-3.919780254E-3,3.169918060E-2
2.534781182E1,-8.702203631E-3,-3.689932823E-2,7.950782776E-3
2.536377251E1,-1.374572515E-3,-3.059603274E-2,-1.101684570E-2
2.537973321E1,-5.782425404E-3,-4.118251801E-2,8.269309998E-3
2.539569390E1,-2.329766750E-3,-3.097735345E-2,3.950405121E-2
2.541168511E1,5.067706108E-3,-2.079270780E-2,2.515029907E-2
2.542770684E1,-6.469219923E-3,-3.802271187E-2,2.758216858E-2
2.544363702E1,-1.244246960E-3,-3.203366697E-2,4.920959473E-2
2.545959771E1,8.626192808E-3,-4.736709595E-2,1.577854156E-2
2.547558892E1,-7.706180215E-3,-5.010539293E-2,4.461193085E-2
2.549151910E1,1.165074110E-2,-5.166010559E-2,2.559566498E-2
2.550747979E1,-1.174540818E-2,-6.028261781E-2,3.776836395E-2
2.552347100E1,-1.118332148E-2,-5.877286196E-2,3.320217133E-2
2.553946221E1,8.610337973E-3,-4.588079453E-2,1.905059814E-2
2.555539239E1,-7.882133126E-3,-7.927954197E-2,4.558944702E-2
2.557135308E1,-2.957403660E-3,-8.518260717E-2,7.455825806E-3
2.558737481E1,-2.098232508E-4,-6.907257438E-2,1.954269409E-2
2.560336602E1,9.763181210E-3,-6.964480877E-2,2.677440643E-2
2.561932671E1,-1.828640699E-3,-7.501289248E-2,2.203559875E-2
2.563531792E1,-3.708302975E-3,-9.052401781E-2,3.171539307E-2
2.565130914E1,-1.509975642E-2,-8.713668585E-2,3.153800964E-3
2.566726983E1,6.959229708E-3,-8.564400673E-2,4.643917084E-2
2.568326104E1,2.413913608E-3,-9.339952469E-2,2.749347687E-2
2.569925225E1,7.631510496E-3,-9.854522347E-2,3.249931335E-2
2.571524346E1,-3.846704960E-3,-7.477828860E-2,3.272628784E-2
2.573123467E1,5.851507187E-3,-9.109011292E-2,2.101230621E-2
2.574716485E1,-3.539979458E-3,-9.184733033E-2,3.328895569E-2
2.576315606E1,-8.110836148E-3,-8.800897002E-2,1.444149017E-2
2.577914727E1,1.145297289E-2,-9.507456422E-2,2.427959442E-2
2.579510796E1,1.178716123E-2,-8.971107006E-2,1.729202271E-2
2.581103814E1,-2.436891198E-3,-1.067145467E-1,2.215957642E-2
2.582702935E1,2.747356892E-3,-1.187252402E-1,1.745510101E-2
2.584299004E1,-3.840357065E-3,-9.649562836E-2,1.277637482E-2
2.585895074E1,-7.936291397E-3,-1.004979908E-1,2.486133575E-2
2.587494195E1,1.864656806E-2,-1.215211153E-1,2.985286713E-2
2.589093316E1,-7.526583970E-3,-1.057831645E-1,8.545875549E-3
2.590695489E1,-1.240003854E-2,-1.129330397E-1,1.123142242E-2
2.592294610E1,-7.772110403E-3,-1.031195223E-1,3.787326813E-2
2.593890679E1,2.017430961E-3,-1.147565544E-1,1.663589478E-2
2.595486748E1,-4.936762154E-3,-1.004561186E-1,2.172279358E-2
2.597088921E1,2.621141821E-2,-1.150320172E-1,2.681159973E-2
2.598694146E1,2.425938845E-3,-9.425908327E-2,2.948474884E-2
2.600290215E1,1.452367008E-2,-9.462115169E-2,3.697013855E-2
2.601886285E1,7.450141013E-3,-1.099412441E-1,4.693508148E-2
2.603482354E1,-4.228278995E-3,-9.733399749E-2,2.346229553E-2
2.605078423E1,3.291510046E-3,-1.087687314E-1,1.196479797E-2
2.606677544E1,1.555474848E-2,-1.165264249E-1,1.478958130E-2
2.608273614E1,1.935444772E-3,-1.279077828E-1,-6.385803223E-3
2.609872735E1,7.079787552E-3,-1.196351945E-1,3.951263428E-2
2.611471856E1,1.188302040E-2,-1.351072192E-1,2.557754517E-2
2.613067925E1,2.239212394E-3,-1.141958237E-1,2.364635468E-2
2.614663994E1,-9.822502732E-3,-1.078190804E-1,7.349014282E-3
2.616260064E1,-2.266891301E-3,-9.625339508E-2,2.446556091E-2
2.617856133E1,1.741128415E-2,-1.295427680E-1,4.388427734E-2
2.619452202E1,8.397199214E-3,-1.200262904E-1,3.682136536E-2
2.621051324E1,3.885909915E-3,-1.163505912E-1,2.504825592E-2
2.622653497E1,1.843421161E-2,-1.210918427E-1,2.770709991E-2
2.624249566E1,1.785114408E-3,-1.338816881E-1,2.327251434E-2
2.625842583E1,6.439268589E-3,-1.205622554E-1,4.194259644E-3
2.627441705E1,-1.789121330E-2,-1.136701703E-1,6.151008606E-2
2.629037774E1,-1.324042678E-2,-1.246080399E-1,3.749370575E-2
2.630633843E1,8.103661239E-3,-1.247329712E-1,4.241180420E-2
2.632229912E1,1.033551991E-2,-1.348162889E-1,1.631832123E-2
2.633829034E1,-1.173670590E-2,-1.477196813E-1,-2.164840698E-4
2.635428155E1,1.186490059E-2,-1.388548613E-1,2.382564545E-2
2.637024224E1,-2.607986331E-3,-1.469317079E-1,2.616977692E-2
2.638620293E1,8.947215974E-3,-1.398127079E-1,1.406383514E-2
2.640216363E1,-1.046551764E-2,-1.509535909E-1,3.792190552E-2
2.641812432E1,1.074654609E-2,-1.515356898E-1,2.366352081E-2
2.643411553E1,5.492962897E-3,-1.658183336E-1,2.155208588E-2
2.645013726E1,-4.260204732E-3,-1.701424718E-1,1.946258545E-2
2.646615899E1,-4.253968596E-3,-1.659079790E-1,2.675056458E-2
2.648208916E1,2.648711205E-3,-1.659164429E-1,2.811431885E-3
2.649804986E1,7.472276688E-3,-1.707047820E-1,3.886318207E-2
2.651404107E1,-1.926571131E-4,-1.535133123E-1,3.917407990E-2
2.653000176E1,1.885011792E-3,-1.636725068E-1,3.252792358E-2
2.654590142E1,2.089722455E-2,-1.893643141E-1,-1.952838898E-2
2.656192315E1,-5.468472838E-3,-1.771188378E-1,1.923370361E-2
2.657788384E1,1.451388001E-3,-1.860436201E-1,1.224136353E-2
2.659387505E1,8.486717939E-3,-1.834806800E-1,3.619670868E-2
2.660983575E1,-3.602758050E-3,-1.718434691E-1,3.138923645E-2
2.662579644E1,5.761489272E-3,-1.776272058E-1,3.387165070E-2
2.664181817E1,1.505108178E-2,-1.778491735E-1,2.937126160E-2
2.665780938E1,-4.398986697E-3,-1.881733537E-1,-1.092433929E-2
2.667380059E1,-1.422234625E-2,-1.600851417E-1,2.301311493E-2
2.668979180E1,7.299363613E-3,-1.945068240E-1,4.261016846E-3
2.670578301E1,7.214963436E-3,-2.158325315E-1,4.584312439E-3
2.672174370E1,1.650714874E-2,-2.001449466E-1,1.695823669E-2
2.673770440E1,1.651793718E-3,-1.789373755E-1,3.130722046E-2
2.675369561E1,-8.521556854E-3,-1.834532619E-1,4.996299744E-3
2.676965630E1,-1.114723831E-2,-1.622855067E-1,2.428627014E-2
2.678555596E1,3.045707941E-3,-1.949028373E-1,3.408145905E-2
2.680160821E1,-6.351068616E-3,-1.927788258E-1,1.522445679E-2
2.681756890E1,3.310725093E-3,-1.992512941E-1,5.852699280E-3
2.683356011E1,-3.688067198E-3,-1.864036322E-1,3.515243530E-3
2.684955132E1,-8.390873671E-3,-1.616252661E-1,1.777553558E-2
2.686548150E1,-3.443971276E-3,-1.756488681E-1,3.271102905E-3
2.688153374E1,-7.987618446E-4,-1.829680800E-1,1.522922516E-2
2.689752496E1,6.412848830E-3,-1.968559027E-1,5.683898926E-3
2.691351617E1,3.772318363E-3,-1.641114950E-1,1.808738708E-2
2.692950738E1,3.600701690E-3,-1.833855510E-1,5.910587311E-2
2.694543755E1,-1.329476386E-2,-1.544848084E-1,3.310775757E-2
2.696148980E1,3.356188536E-3,-1.405635476E-1,3.835868835E-2
2.697748101E1,1.298248768E-2,-1.768479347E-1,2.413272858E-2
2.699344170E1,-1.563153416E-2,-1.461349726E-1,-4.462242126E-3
2.700940240E1,3.734931350E-3,-1.707574725E-1,5.064964294E-3
2.702536309E1,-8.380979300E-3,-1.716219187E-1,4.554367065E-2
2.704141534E1,3.437712789E-3,-1.656324267E-1,2.375125885E-2
2.705740655E1,8.267700672E-3,-1.662422419E-1,3.072834015E-2
2.707339776E1,-1.329014450E-2,-1.552942991E-1,1.852512360E-2
2.708935845E1,1.299661398E-2,-1.676766872E-1,6.398773193E-2
2.710531914E1,2.021296322E-2,-1.500536203E-1,1.392936707E-2
2.712134087E1,8.024886250E-3,-1.644911766E-1,2.383232117E-2
2.713736260E1,-1.828193665E-2,-1.616747379E-1,2.179622650E-2
2.715335381E1,-1.117012650E-2,-1.709678173E-1,3.841114044E-2
2.716934502E1,-1.107802242E-2,-1.417503357E-1,2.424335480E-2
2.718527520E1,3.499284387E-3,-1.489497423E-1,2.919387817E-2
2.720126641E1,-3.541499376E-3,-1.371120214E-1,3.413772583E-2
2.721722710E1,-8.128836751E-3,-1.325845122E-1,2.949523926E-2
2.723321831E1,-1.264711469E-2,-1.444032192E-1,3.206539154E-2
2.724917901E1,1.170691848E-2,-1.275281310E-1,1.068782806E-2
2.726513970E1,-2.879271656E-2,-1.363676190E-1,8.342742920E-3
2.728116143E1,9.940907359E-3,-1.343621016E-1,3.464603424E-2
2.729715264E1,-2.047255635E-3,-1.477974653E-1,5.609130859E-2
2.731314385E1,-4.583403468E-3,-1.420360208E-1,1.735019684E-2
2.732913506E1,-6.873458624E-3,-1.294052601E-1,1.382827759E-4
2.734512627E1,-6.968170404E-3,-1.197797656E-1,6.462192535E-2
2.736111748E1,-1.447062939E-2,-1.321923733E-1,6.220054626E-2
2.737710870E1,4.372760653E-3,-1.357732415E-1,4.569435120E-2
2.739303887E1,-1.485327631E-2,-1.435686946E-1,2.939128876E-2
2.740906060E1,-1.943345368E-2,-1.230634451E-1,1.066493988E-2
2.742508233E1,9.361490607E-3,-1.281176209E-1,1.560306549E-2
2.744104302E1,-1.928743720E-2,-1.117790937E-1,2.514934540E-2
2.745700372E1,-4.826217890E-3,-1.128488183E-1,6.098556519E-2
2.747302544E1,4.651248455E-3,-1.127242446E-1,3.944778442E-2
2.748901665E1,-1.370012760E-4,-1.178700924E-1,4.677486420E-2
2.750503838E1,-1.678298414E-2,-1.190984249E-1,3.744888306E-2
2.752099908E1,-1.414646953E-2,-1.320940256E-1,1.137638092E-2
2.753695977E1,1.480586827E-2,-1.165618300E-1,1.385116577E-2
2.755295098E1,-6.823539734E-3,-1.043231487E-1,2.327728271E-2
2.756894219E1,-1.415058225E-2,-1.184989214E-1,4.227638245E-2
2.758496392E1,-2.101764083E-3,-1.055753231E-1,3.755378723E-2
2.760092461E1,2.510398626E-4,-1.113883257E-1,4.500579834E-2
2.761688531E1,2.588331699E-4,-1.205739975E-1,-2.506256104E-3
2.763281548E1,2.786159515E-3,-1.196757555E-1,1.688385010E-2
2.764880669E1,-1.403953880E-2,-1.021572351E-1,4.327583313E-2
2.766482842E1,-9.168244898E-3,-1.218704581E-1,2.647495270E-2
2.768078912E1,-4.369646311E-3,-1.133729219E-1,5.273342133E-2
2.769674981E1,2.903208137E-3,-1.042508483E-1,2.157402039E-2
2.771274102E1,-2.087014914E-2,-1.070509553E-1,3.608131409E-2
2.772876275E1,-1.693621278E-3,-9.744876623E-2,2.445983887E-2
2.774478448E1,-2.081300318E-2,-1.054446697E-1,1.756858826E-2
2.776074517E1,8.117407560E-4,-1.171004176E-1,2.494907379E-2
2.777670586E1,1.250147820E-3,-9.676784277E-2,3.460788727E-2
2.779266656E1,1.268029213E-3,-9.247726202E-2,1.781082153E-2
2.780865777E1,-3.633409739E-3,-9.373390675E-2,2.969169617E-2
2.782471001E1,-2.530496567E-2,-1.195189357E-1,1.536750793E-2
2.784067071E1,5.951464176E-3,-1.119403243E-1,1.796627045E-2
2.785663140E1,-1.563884318E-2,-1.083509326E-1,2.302169800E-2
2.787262261E1,-6.037726998E-3,-9.418553114E-2,6.424903870E-3
2.788861382E1,3.797158599E-3,-8.814078569E-2,1.848697662E-2
2.790460503E1,-7.948242128E-3,-8.028972149E-2,1.135063171E-2
2.792056573E1,-1.002546400E-2,-8.705967665E-2,2.813816071E-2
2.793652642E1,-1.449568570E-2,-8.112329245E-2,4.737281799E-2
2.795251763E1,-1.676052809E-2,-5.282700062E-2,2.357673645E-2
2.796847832E1,-4.645280540E-3,-9.065186977E-2,1.182079315E-2
2.798437798E1,-9.156264365E-3,-7.443034649E-2,1.913928986E-2
2.800043023E1,3.142148256E-3,-9.139800072E-2,2.390766144E-2
2.801639092E1,-1.552216709E-3,-7.844990492E-2,3.098297119E-2
2.803238213E1,-8.938670158E-3,-8.066356182E-2,1.645278931E-2
2.804834283E1,-1.361092180E-2,-8.479708433E-2,3.786849976E-2
2.806430352E1,-8.775867522E-3,-7.407623529E-2,4.753112793E-2
2.808029473E1,3.178499639E-3,-9.172129631E-2,1.651954651E-2
2.809628594E1,-3.061170876E-2,-7.951843739E-2,1.893520355E-2
2.811224664E1,-4.563376307E-3,-9.508305788E-2,3.560829163E-2
2.812826836E1,2.031922340E-4,-5.701714754E-2,4.277324677E-2
2.814422906E1,-1.651939005E-2,-8.055198193E-2,2.843761444E-2
2.816022027E1,5.060493946E-3,-6.429618597E-2,3.336811066E-2
2.817621148E1,1.468839496E-2,-9.053361416E-2,2.397918701E-2
2.819220269E1,-9.229488671E-3,-7.001930475E-2,4.323577881E-2
2.820813287E1,7.468536496E-3,-6.865280867E-2,4.573440552E-2
2.822412408E1,9.957186878E-3,-7.821059227E-2,1.939868927E-2
2.824011529E1,-9.291216731E-3,-8.474600315E-2,1.125335693E-4
2.825610650E1,-1.915059984E-2,-6.500905752E-2,4.289436340E-2
2.827206719E1,-4.992090166E-3,-7.046401501E-2,4.266738892E-2
2.828808892E1,7.047861814E-3,-9.782350063E-2,4.737758636E-2
2.830404961E1,-1.203323901E-2,-6.753778458E-2,1.636791229E-2
2.832004082E1,7.132142782E-3,-1.059813499E-1,2.372074127E-2
2.833603204E1,-5.142986774E-3,-9.138613939E-2,2.374267578E-2
2.835199273E1,-2.458959073E-2,-9.325981140E-2,1.642227173E-2
2.836798394E1,-3.400176764E-3,-7.237052917E-2,4.971790314E-2
2.838400567E1,3.659680486E-3,-8.228433132E-2,3.275489807E-2
2.839996636E1,8.488848805E-3,-6.690585613E-2,3.265094757E-2
2.841592706E1,-6.156608462E-3,-7.274556160E-2,3.515052795E-2
2.843188775E1,-1.574997604E-2,-8.809614182E-2,6.702423096E-3
2.844784844E1,9.443759918E-4,-8.157509565E-2,-1.932144165E-2
2.846380914E1,-1.296589524E-2,-5.905526876E-2,4.688262939E-3
2.847980035E1,1.582625508E-2,-8.146494627E-2,-1.668930054E-4
2.849576104E1,-1.042074710E-2,-6.488060951E-2,3.315830231E-2
2.851175225E1,3.857359290E-3,-5.132454634E-2,2.830982208E-2
2.852771294E1,-1.063708216E-2,-6.600487232E-2,2.607250214E-2
2.854367364E1,-9.998530149E-4,-7.612806559E-2,7.238388062E-3
2.855963433E1,-3.216065466E-2,-6.526041031E-2,2.667331696E-2
2.857559502E1,1.456752419E-3,-7.124900818E-2,1.718521118E-2
2.859155572E1,-1.745320857E-2,-5.926662683E-2,2.178955078E-2
2.860751641E1,-1.504325867E-2,-5.580198765E-2,6.699752808E-2
2.862344659E1,-7.931001484E-3,-5.861645937E-2,6.199741364E-2
2.863943780E1,-1.729238033E-2,-5.835032463E-2,3.567981720E-2
2.865545952E1,-5.240269005E-3,-5.834543705E-2,2.388858795E-2
2.867148125E1,-1.224985719E-2,-6.258440018E-2,2.410888672E-2
2.868744195E1,-9.520404041E-3,-6.292772293E-2,3.144359589E-2
2.870340264E1,1.419484615E-4,-5.373227596E-2,7.470130920E-3
2.871936333E1,-4.497841001E-3,-5.600601435E-2,4.799747467E-2
2.873532403E1,-1.194673777E-2,-4.704082012E-2,3.819751740E-2
2.875128472E1,-9.706497192E-3,-6.794238091E-2,2.130794525E-2
2.876724541E1,-1.213043183E-2,-5.302250385E-2,4.050445557E-2
2.878317559E1,2.368129790E-3,-4.673653841E-2,2.864360809E-2
2.879922784E1,-1.920965314E-2,-5.088847876E-2,7.143974304E-3
2.881521905E1,-2.150547504E-2,-7.156360149E-2,1.899909973E-2
2.883117974E1,-4.791170359E-3,-5.353695154E-2,4.746532440E-2
2.884714043E1,-4.594109952E-3,-3.378152847E-2,4.236125946E-2
2.886310113E1,-9.255737066E-3,-2.400147915E-2,2.304267883E-2
2.887906182E1,-1.382032037E-2,-4.528862238E-2,3.742408752E-2
2.889502251E1,-1.373434812E-2,-4.949253798E-2,1.352500916E-2
2.891101372E1,3.234811127E-3,-4.988503456E-2,3.738403320E-3
2.892694390E1,1.026218385E-2,-3.035318851E-2,3.436183929E-2
2.894296563E1,-1.142458618E-2,-3.646391630E-2,2.655887604E-2
2.895889580E1,-1.134569198E-2,-4.323530197E-2,5.001068115E-2
2.897485650E1,-4.204042256E-3,-2.726912498E-2,1.147556305E-2
2.899084771E1,-4.365190864E-3,-5.138581991E-2,3.763008118E-2
2.900677788E1,3.104358912E-4,-3.981822729E-2,1.810836792E-2
2.902273858E1,-1.165383309E-2,-2.467876673E-2,3.664302826E-2
2.903872979E1,5.200602114E-3,-2.868521214E-2,2.884769440E-2
2.905472100E1,-1.156531274E-2,-3.030329943E-2,4.756164551E-2
2.907068169E1,-1.155269146E-2,-1.478290558E-2,3.294849396E-2
2.908664239E1,5.804821849E-4,-3.187572956E-2,1.360797882E-2
2.910266412E1,2.962358296E-3,-3.531402349E-2,1.403808594E-3
2.911862481E1,-1.623356342E-2,-3.604012728E-2,1.061153412E-2
2.913458550E1,2.710208297E-3,-3.831297159E-2,4.366493225E-2
2.915054620E1,2.422235906E-3,-3.517550230E-2,2.888011932E-2
2.916656792E1,-2.582177520E-3,-3.282207251E-2,3.814506531E-2
2.918258965E1,4.561983049E-3,-4.524046183E-2,2.838516235E-2
2.919855035E1,-5.029678345E-3,-4.512476921E-2,2.584266663E-2
2.921448052E1,-7.398277521E-3,-3.641587496E-2,2.563285828E-2
2.923047173E1,-2.630665898E-3,-2.874207497E-2,3.014755249E-2
2.924646294E1,-2.868250012E-4,-3.185790777E-2,2.740573883E-2
2.926248467E1,-1.002183557E-2,-4.110258818E-2,3.176689148E-2
2.927847588E1,-1.493516564E-2,-2.491295338E-2,3.128814697E-2
2.929443658E1,-5.582258105E-3,-4.021018744E-2,3.318881989E-2
2.931039727E1,1.739218831E-3,-2.910262346E-2,4.242134094E-2
2.932635796E1,-1.017709821E-2,-3.021973372E-2,8.691787720E-3
2.934228814E1,-1.240367442E-2,-1.832610369E-2,4.206180573E-2
2.935830987E1,1.973137259E-3,-3.925591707E-2,1.801395416E-2
2.937430108E1,-7.705263793E-3,-3.151166439E-2,2.748298645E-2
2.939026177E1,-1.737937331E-2,-2.259725332E-2,2.730369568E-2
2.940622247E1,1.742109656E-3,-9.906828403E-3,3.664302826E-2
2.942218316E1,-3.427326679E-3,-1.305121183E-2,3.632545471E-2
2.943817437E1,5.768746138E-3,-2.650326490E-2,4.075908661E-2
2.945416558E1,1.264579594E-2,-2.525514364E-2,3.803062439E-2
2.947009576E1,4.587918520E-4,-1.508569717E-2,2.822017670E-2
2.948611748E1,-1.413015276E-2,-1.332193613E-2,2.565860748E-2
2.950210870E1,-7.044613361E-3,-1.804292202E-3,6.481170654E-3
2.951806939E1,-9.789027274E-3,-6.366193295E-3,3.988361359E-2
2.953406060E1,-9.963192046E-3,1.283288002E-4,4.211044312E-2
2.954999078E1,-7.055550814E-4,-1.217383146E-2,4.435729980E-2
2.956595147E1,-6.280243397E-4,-1.338452101E-2,2.034854889E-2
2.958197320E1,-9.416937828E-4,4.884481430E-3,1.072692871E-2
2.959793389E1,6.086975336E-3,4.021227360E-3,2.025794983E-2
2.961389458E1,-1.348400861E-2,1.695489883E-2,4.173374176E-2
2.962988580E1,-1.395260543E-2,1.768362522E-2,2.967834473E-2
2.964584649E1,-2.238884568E-3,2.524739504E-2,3.914928436E-2
2.966180718E1,-1.920257509E-2,3.805315495E-2,3.188514709E-2
2.967779839E1,-9.607255459E-3,3.280800581E-2,4.143619537E-2
2.969378960E1,2.395913005E-3,2.353698015E-2,2.469348907E-2
2.970975030E1,-1.462755352E-2,4.499030113E-2,3.905677795E-2
2.972577202E1,-3.156512976E-4,2.703994513E-2,4.378128052E-2
2.974173272E1,-1.492431015E-2,5.331990123E-2,3.168201447E-2
2.975772393E1,8.874669671E-3,3.257638216E-2,4.104804993E-2
2.977371514E1,-5.515664816E-3,3.915974498E-2,4.724502563E-3
2.978967583E1,-7.738620043E-4,6.513616443E-2,6.974220276E-3
2.980566705E1,-9.911954403E-4,6.813722849E-2,4.506874084E-2
2.982168877E1,-1.787642390E-2,5.634453893E-2,3.059101105E-2
2.983764947E1,-8.173972368E-3,6.825166941E-2,2.579784393E-2
2.985361016E1,1.834473014E-2,6.996721029E-2,2.097225189E-2
2.986960137E1,1.601891220E-2,8.118587732E-2,3.038597107E-2
2.988559258E1,-1.012445986E-2,6.139039993E-2,3.010845184E-2
2.990161431E1,-5.472019315E-3,6.477558613E-2,5.134677887E-2
2.991757500E1,-1.015049219E-2,8.466014266E-2,4.396152496E-2
2.993356622E1,6.381690502E-3,8.546635509E-2,4.149150848E-2
2.994949639E1,6.198287010E-3,7.099837065E-2,5.345916748E-2
2.996548760E1,-3.429427743E-3,7.468780875E-2,2.228164673E-2
2.998150933E1,-6.178990006E-3,9.370508790E-2,2.695083618E-2
2.999747002E1,-1.343189925E-2,9.708744287E-2,2.197837830E-2
3.001343072E1,-3.756865859E-3,9.307131171E-2,3.135871887E-2
3.002936089E1,-1.806854457E-2,9.943935275E-2,2.641582489E-2
3.004538262E1,8.300244808E-4,1.037024856E-1,2.867507935E-2
3.006134331E1,1.279954612E-2,1.079952419E-1,5.726909637E-2
3.007733452E1,-3.798097372E-3,9.058332443E-2,2.839279175E-2
3.009335625E1,-9.671747684E-4,9.848529100E-2,4.016780853E-2
3.010934747E1,-1.092612743E-3,1.004400849E-1,2.795696259E-2
3.012530816E1,6.061524153E-3,1.058409810E-1,4.441738129E-2
3.014123833E1,8.524373174E-3,1.077223718E-1,2.741909027E-2
3.015722955E1,3.583267331E-3,1.001833677E-1,5.113410950E-2
3.017319024E1,9.865164757E-4,1.115420163E-1,3.413963318E-2
3.018918145E1,5.434006453E-3,9.458690882E-2,2.802848816E-3
3.020514214E1,7.845595479E-3,9.209072590E-2,2.414131165E-2
3.022113335E1,-4.091635346E-3,9.471061826E-2,3.113079071E-2
3.023712456E1,-4.222258925E-3,1.052147746E-1,2.857589722E-2
3.025308526E1,7.666110992E-3,1.041260958E-1,2.124881744E-2
3.026907647E1,-2.580493689E-2,8.444884419E-2,1.873302460E-2
3.028506768E1,-1.822039485E-3,1.068730056E-1,4.490947723E-2
3.030105889E1,6.577968597E-4,1.237030625E-1,4.232311249E-2
3.031701958E1,1.949892938E-2,9.837418795E-2,2.062797546E-2
3.033298028E1,-9.044364095E-3,8.271971345E-2,3.254508972E-2
3.034897149E1,1.732859015E-2,1.165527999E-1,4.213428497E-2
3.036493218E1,2.577632666E-3,1.137213707E-1,1.578617096E-2
3.038092339E1,1.938387752E-3,1.248123944E-1,4.200077057E-2
3.039688409E1,4.069522023E-3,1.088821888E-1,1.790714264E-2
3.041284478E1,4.028469324E-3,1.058009565E-1,4.172992706E-2
3.042883599E1,-8.588284254E-4,1.093779206E-1,2.971458435E-2
3.044476617E1,-3.466606140E-3,1.192245781E-1,2.963542938E-2
3.046072686E1,8.423104882E-3,8.502757549E-2,3.909587860E-2
3.047671807E1,1.518756151E-3,1.001173854E-1,3.175544739E-2
3.049273980E1,-1.783616096E-2,1.050017774E-1,2.679443359E-2
3.050873101E1,1.084426045E-2,9.519839287E-2,3.618812561E-2
3.052469170E1,-2.770994604E-2,9.003886580E-2,-4.697799683E-3
3.054065240E1,5.435347557E-4,1.183676273E-1,4.698753357E-3
3.055670464E1,-2.114504576E-3,1.073793918E-1,4.039764404E-2
3.057269585E1,-2.501413226E-3,1.052656621E-1,3.777122498E-2
3.058865655E1,6.973639131E-3,1.074046195E-1,5.667400360E-2
3.060461724E1,-4.902049899E-3,1.025450528E-1,2.291393280E-2
3.062060845E1,9.580373764E-3,1.000012755E-1,2.028083801E-2
3.063653863E1,2.221196890E-3,1.088238209E-1,2.482128143E-2
3.065252984E1,-2.798378468E-3,1.090726554E-1,5.805778503E-2
3.066852105E1,-6.266981363E-4,1.378692687E-1,4.101943970E-2
3.068448174E1,1.833826303E-2,1.396155804E-1,4.079627991E-2
3.070044244E1,1.253351569E-3,1.184057295E-1,5.025196075E-2
3.071643365E1,2.057364583E-2,1.236475706E-1,2.864742279E-2
3.073242486E1,-1.078432798E-2,1.403854489E-1,2.379608154E-2
3.074838555E1,-5.985513330E-3,1.361301243E-1,1.643276215E-2
3.076437676E1,-2.514089644E-2,1.322250068E-1,1.632881165E-2
3.078039849E1,1.061388850E-2,1.346797645E-1,3.290367126E-2
3.079638970E1,-3.873184323E-3,1.358060539E-1,3.514671326E-2
3.081235039E1,7.690340281E-4,1.081991047E-1,1.823902130E-2
3.082834161E1,-6.597518921E-3,1.303002238E-1,3.005313873E-2
3.084433282E1,1.958866417E-2,1.424977183E-1,2.749729156E-2
3.086035455E1,-6.978929043E-3,1.430210918E-1,4.171466827E-2
3.087634576E1,2.062320709E-4,1.416533887E-1,5.594348907E-2
3.089230645E1,-4.527449608E-3,1.352851391E-1,2.707576752E-2
3.090829766E1,-6.749868393E-3,1.228926927E-1,1.015567780E-2
3.092428887E1,1.015765965E-2,1.308155209E-1,2.673816681E-2
3.094028008E1,-1.676172018E-3,1.314533353E-1,3.135395050E-2
3.095627129E1,-1.710221171E-3,1.161250621E-1,3.599548340E-2
3.097220147E1,1.023967564E-2,1.301485747E-1,3.826045990E-2
3.098819268E1,-1.118451357E-2,1.038161442E-1,1.898574829E-2
3.100415337E1,1.049448550E-2,1.198012382E-1,1.885795593E-2
3.102014458E1,1.306079328E-2,1.187243387E-1,2.352046967E-2
3.103613580E1,3.690615296E-3,1.187680811E-1,2.341651917E-2
3.105209649E1,-9.132325649E-4,1.114968061E-1,2.813625336E-2
3.106808770E1,3.943905234E-3,1.300744712E-1,4.724979401E-2
3.108407891E1,1.945167780E-3,1.431563050E-1,2.567958832E-2
3.110007012E1,1.903976500E-2,1.321809292E-1,4.109382629E-3
3.111606133E1,9.790182114E-3,1.086878106E-1,1.126289368E-2
3.113199151E1,2.462863922E-2,1.262058020E-1,3.272628784E-2
3.114798272E1,-3.072306514E-3,1.301826090E-1,2.783203125E-2
3.116394341E1,5.513429642E-3,1.229919419E-1,2.294731140E-2
3.117987359E1,6.666839123E-3,1.386445761E-1,3.247261047E-2
3.119589532E1,-7.340803742E-3,1.240876764E-1,3.736495972E-3
3.121188653E1,4.824280739E-3,1.349386573E-1,8.535385132E-3
3.122787774E1,2.507865429E-3,1.405300498E-1,2.769565582E-2
3.124383843E1,5.370646715E-3,1.201072484E-1,2.288818359E-2
3.125979912E1,1.250997186E-3,1.340688318E-1,4.679393768E-2
3.127579034E1,2.446621656E-3,1.282370090E-1,2.040863037E-2
3.129178155E1,-1.536794007E-2,1.410050392E-1,3.472042084E-2
3.130774224E1,-4.872359335E-3,1.355133206E-1,4.904556274E-2
3.132376397E1,2.734109759E-3,1.404228210E-1,-1.803684235E-2
3.133972466E1,5.425386131E-3,1.221745759E-1,2.983188629E-2
3.135568536E1,-6.141372025E-3,1.323486567E-1,3.461933136E-2
3.137164605E1,1.562483609E-2,1.537497044E-1,2.025032043E-2
3.138763726E1,-1.147970557E-3,1.437304020E-1,3.459358215E-2
3.140365899E1,3.798350692E-3,1.299429238E-1,1.301193237E-2
3.141968072E1,1.340425760E-2,1.262334436E-1,3.453254700E-2
3.143564141E1,1.574610919E-2,1.345952451E-1,2.732563019E-2
3.145160210E1,1.092969626E-2,1.264692843E-1,3.688144684E-2
3.146759331E1,1.297041774E-3,1.187274903E-1,3.207588196E-2
3.148358452E1,-8.475996554E-3,1.114638746E-1,4.164028168E-2
3.149960625E1,6.002977490E-3,1.094616055E-1,3.205108643E-2
3.151556695E1,-1.106634736E-3,1.218438596E-1,1.767444611E-2
3.153149712E1,1.083423942E-2,1.248364076E-1,1.287651062E-2
3.154748833E1,1.323577762E-2,1.233288944E-1,2.483940125E-2
3.156341851E1,-3.572776914E-3,1.171696112E-1,4.159355164E-2
3.157937920E1,3.785952926E-3,1.089030653E-1,1.524925232E-2
3.159537041E1,1.342386007E-3,1.077057570E-1,1.285076141E-2
3.161136162E1,-1.115575433E-3,9.715750813E-2,2.481746674E-2
3.162732232E1,8.277222514E-3,1.036663800E-1,2.960491180E-2
3.164331353E1,1.300771534E-2,1.198645979E-1,1.284408569E-2
3.165930474E1,7.594153285E-3,9.360823035E-2,8.053779602E-3
3.167529595E1,-1.164820045E-2,9.059605747E-2,-6.314277649E-3
3.169125664E1,7.462501526E-5,1.110284850E-1,1.523303986E-2
3.170724786E1,4.376292229E-3,9.783335030E-2,4.157066345E-2
3.172317803E1,8.798837662E-3,1.063165590E-1,8.052825928E-3
3.173919976E1,3.674328327E-3,9.338657558E-2,4.636096954E-2
3.175516045E1,9.675174952E-4,9.497853369E-2,1.523685455E-2
3.177112115E1,1.037657261E-2,1.015547365E-1,3.199672699E-2
3.178711236E1,-3.994777799E-3,1.126451790E-1,5.657196045E-3
3.180307305E1,6.578117609E-4,1.023168415E-1,2.241611481E-2
3.181897271E1,3.029569983E-3,9.913308918E-2,2.959632874E-2
3.183499444E1,7.440268993E-3,1.149561405E-1,8.050918579E-3
3.185101617E1,4.023313522E-7,1.116647944E-1,3.917503357E-2
